subject_nr	trial_nb	PW_code	PW	V	C	mode	place	voicing	label_left	label_right	chosen_label	response_time
1	10	a_occ_vel_NV	akak	a	k	plosive	posterior	voiceless	a_repulsive_animal	an_attractive_animal	a_repulsive_animal	1787.994612
2	12	a_nas_alv	anan	a	n	sonorant	medium	voiced	a_repulsive_animal	an_attractive_animal	an_attractive_animal	942.1591001
4	10	i_occ_vel_NV	ikik	i	k	plosive	posterior	voiceless	a_repulsive_animal	an_attractive_animal	an_attractive_animal	1662.0987
8	14	a_nas_alv	anan	a	n	sonorant	medium	voiced	a_repulsive_animal	an_attractive_animal	an_attractive_animal	1296.235392
11	12	i_nas_alv	inin	i	n	sonorant	medium	voiced	a_repulsive_animal	an_attractive_animal	a_repulsive_animal	697.7951199
12	8	i_occ_vel_NV	ikik	i	k	plosive	posterior	voiceless	a_repulsive_animal	an_attractive_animal	an_attractive_animal	1335.612958
16	8	i_occ_vel_NV	ikik	i	k	plosive	posterior	voiceless	a_repulsive_animal	an_attractive_animal	an_attractive_animal	2377.968149
18	10	a_nas_alv	anan	a	n	sonorant	medium	voiced	a_repulsive_animal	an_attractive_animal	an_attractive_animal	854.2155061
18	13	i_occ_vel_NV	ikik	i	k	plosive	posterior	voiceless	a_repulsive_animal	an_attractive_animal	a_repulsive_animal	411.6271763
19	11	i_nas_alv	inin	i	n	sonorant	medium	voiced	a_repulsive_animal	an_attractive_animal	a_repulsive_animal	1992.842971
20	6	a_nas_alv	anan	a	n	sonorant	medium	voiced	a_repulsive_animal	an_attractive_animal	an_attractive_animal	2338.443258
20	15	i_occ_vel_NV	ikik	i	k	plosive	posterior	voiceless	a_repulsive_animal	an_attractive_animal	a_repulsive_animal	1419.266241
21	7	a_occ_vel_NV	akak	a	k	plosive	posterior	voiceless	a_repulsive_animal	an_attractive_animal	a_repulsive_animal	1209.040674
21	10	i_nas_alv	inin	i	n	sonorant	medium	voiced	a_repulsive_animal	an_attractive_animal	an_attractive_animal	2005.367937
22	13	a_nas_alv	anan	a	n	sonorant	medium	voiced	a_repulsive_animal	an_attractive_animal	an_attractive_animal	1117.488107
23	10	a_occ_vel_NV	akak	a	k	plosive	posterior	voiceless	a_repulsive_animal	an_attractive_animal	a_repulsive_animal	988.9870211
24	5	i_occ_vel_NV	ikik	i	k	plosive	posterior	voiceless	a_repulsive_animal	an_attractive_animal	an_attractive_animal	629.368981
24	9	a_nas_alv	anan	a	n	sonorant	medium	voiced	a_repulsive_animal	an_attractive_animal	a_repulsive_animal	1401.372674
26	11	a_nas_alv	anan	a	n	sonorant	medium	voiced	a_repulsive_animal	an_attractive_animal	a_repulsive_animal	1998.518802
27	9	i_nas_alv	inin	i	n	sonorant	medium	voiced	a_repulsive_animal	an_attractive_animal	an_attractive_animal	2061.500857
28	14	a_nas_alv	anan	a	n	sonorant	medium	voiced	a_repulsive_animal	an_attractive_animal	a_repulsive_animal	423.3949903
32	8	i_occ_vel_NV	ikik	i	k	plosive	posterior	voiceless	a_repulsive_animal	an_attractive_animal	a_repulsive_animal	536.127972
32	9	a_nas_alv	anan	a	n	sonorant	medium	voiced	a_repulsive_animal	an_attractive_animal	a_repulsive_animal	706.9511375
33	11	a_occ_vel_NV	akak	a	k	plosive	posterior	voiceless	a_repulsive_animal	an_attractive_animal	a_repulsive_animal	1259.541394
34	11	a_nas_alv	anan	a	n	sonorant	medium	voiced	a_repulsive_animal	an_attractive_animal	a_repulsive_animal	2006.673191
35	7	i_nas_alv	inin	i	n	sonorant	medium	voiced	a_repulsive_animal	an_attractive_animal	an_attractive_animal	1686.136423
35	11	a_occ_vel_NV	akak	a	k	plosive	posterior	voiceless	a_repulsive_animal	an_attractive_animal	a_repulsive_animal	2214.563854
38	9	i_occ_vel_NV	ikik	i	k	plosive	posterior	voiceless	a_repulsive_animal	an_attractive_animal	a_repulsive_animal	2334.736593
40	5	i_occ_vel_NV	ikik	i	k	plosive	posterior	voiceless	a_repulsive_animal	an_attractive_animal	a_repulsive_animal	563.823807
40	8	a_nas_alv	anan	a	n	sonorant	medium	voiced	a_repulsive_animal	an_attractive_animal	an_attractive_animal	1410.011565
41	12	i_nas_alv	inin	i	n	sonorant	medium	voiced	a_repulsive_animal	an_attractive_animal	a_repulsive_animal	858.4214919
42	6	i_occ_vel_NV	ikik	i	k	plosive	posterior	voiceless	a_repulsive_animal	an_attractive_animal	a_repulsive_animal	1582.401132
42	11	a_nas_alv	anan	a	n	sonorant	medium	voiced	a_repulsive_animal	an_attractive_animal	a_repulsive_animal	838.5584683
43	11	a_occ_vel_NV	akak	a	k	plosive	posterior	voiceless	a_repulsive_animal	an_attractive_animal	a_repulsive_animal	1887.643262
44	10	i_occ_vel_NV	ikik	i	k	plosive	posterior	voiceless	a_repulsive_animal	an_attractive_animal	an_attractive_animal	1026.708111
44	14	a_nas_alv	anan	a	n	sonorant	medium	voiced	a_repulsive_animal	an_attractive_animal	a_repulsive_animal	774.910302
45	5	i_nas_alv	inin	i	n	sonorant	medium	voiced	a_repulsive_animal	an_attractive_animal	an_attractive_animal	832.4406145
45	12	a_occ_vel_NV	akak	a	k	plosive	posterior	voiceless	a_repulsive_animal	an_attractive_animal	a_repulsive_animal	1231.883786
47	7	i_nas_alv	inin	i	n	sonorant	medium	voiced	a_repulsive_animal	an_attractive_animal	an_attractive_animal	2355.921236
48	7	a_nas_alv	anan	a	n	sonorant	medium	voiced	a_repulsive_animal	an_attractive_animal	an_attractive_animal	760.8973022
50	15	i_occ_vel_NV	ikik	i	k	plosive	posterior	voiceless	a_repulsive_animal	an_attractive_animal	a_repulsive_animal	688.6300654
51	15	a_occ_vel_NV	akak	a	k	plosive	posterior	voiceless	a_repulsive_animal	an_attractive_animal	a_repulsive_animal	1696.980691
53	7	a_occ_vel_NV	akak	a	k	plosive	posterior	voiceless	a_repulsive_animal	an_attractive_animal	a_repulsive_animal	1153.077957
55	12	a_occ_vel_NV	akak	a	k	plosive	posterior	voiceless	a_repulsive_animal	an_attractive_animal	a_repulsive_animal	1752.927461
57	8	a_occ_vel_NV	akak	a	k	plosive	posterior	voiceless	a_repulsive_animal	an_attractive_animal	a_repulsive_animal	725.2009604
59	6	i_nas_alv	inin	i	n	sonorant	medium	voiced	a_repulsive_animal	an_attractive_animal	an_attractive_animal	924.0999059
1	6	i_nas_alv	inin	i	n	sonorant	medium	voiced	an_attractive_animal	a_repulsive_animal	a_repulsive_animal	1699.868268
2	4	i_occ_vel_NV	ikik	i	k	plosive	posterior	voiceless	an_attractive_animal	a_repulsive_animal	a_repulsive_animal	811.8106542
4	11	a_nas_alv	anan	a	n	sonorant	medium	voiced	an_attractive_animal	a_repulsive_animal	a_repulsive_animal	615.9216587
5	4	i_nas_alv	inin	i	n	sonorant	medium	voiced	an_attractive_animal	a_repulsive_animal	an_attractive_animal	717.1586283
5	10	a_occ_vel_NV	akak	a	k	plosive	posterior	voiceless	an_attractive_animal	a_repulsive_animal	a_repulsive_animal	1578.892028
6	5	a_nas_alv	anan	a	n	sonorant	medium	voiced	an_attractive_animal	a_repulsive_animal	a_repulsive_animal	1690.45501
6	15	i_occ_vel_NV	ikik	i	k	plosive	posterior	voiceless	an_attractive_animal	a_repulsive_animal	a_repulsive_animal	1656.133185
8	11	i_occ_vel_NV	ikik	i	k	plosive	posterior	voiceless	an_attractive_animal	a_repulsive_animal	a_repulsive_animal	1126.899379
9	4	a_occ_vel_NV	akak	a	k	plosive	posterior	voiceless	an_attractive_animal	a_repulsive_animal	an_attractive_animal	879.9970998
9	9	i_nas_alv	inin	i	n	sonorant	medium	voiced	an_attractive_animal	a_repulsive_animal	an_attractive_animal	597.0345572
10	5	i_occ_vel_NV	ikik	i	k	plosive	posterior	voiceless	an_attractive_animal	a_repulsive_animal	a_repulsive_animal	2119.533777
10	10	a_nas_alv	anan	a	n	sonorant	medium	voiced	an_attractive_animal	a_repulsive_animal	an_attractive_animal	1622.412248
11	11	a_occ_vel_NV	akak	a	k	plosive	posterior	voiceless	an_attractive_animal	a_repulsive_animal	a_repulsive_animal	1381.98566
12	15	a_nas_alv	anan	a	n	sonorant	medium	voiced	an_attractive_animal	a_repulsive_animal	an_attractive_animal	400.1490468
13	9	a_occ_vel_NV	akak	a	k	plosive	posterior	voiceless	an_attractive_animal	a_repulsive_animal	a_repulsive_animal	941.1149114
13	15	i_nas_alv	inin	i	n	sonorant	medium	voiced	an_attractive_animal	a_repulsive_animal	a_repulsive_animal	438.877388
14	6	i_occ_vel_NV	ikik	i	k	plosive	posterior	voiceless	an_attractive_animal	a_repulsive_animal	None	2500.031617
14	7	a_nas_alv	anan	a	n	sonorant	medium	voiced	an_attractive_animal	a_repulsive_animal	an_attractive_animal	570.277968
15	9	i_nas_alv	inin	i	n	sonorant	medium	voiced	an_attractive_animal	a_repulsive_animal	a_repulsive_animal	563.7314283
15	12	a_occ_vel_NV	akak	a	k	plosive	posterior	voiceless	an_attractive_animal	a_repulsive_animal	an_attractive_animal	1698.048718
16	4	a_nas_alv	anan	a	n	sonorant	medium	voiced	an_attractive_animal	a_repulsive_animal	None	2500.024002
17	12	i_nas_alv	inin	i	n	sonorant	medium	voiced	an_attractive_animal	a_repulsive_animal	None	2500.028637
17	14	a_occ_vel_NV	akak	a	k	plosive	posterior	voiceless	an_attractive_animal	a_repulsive_animal	a_repulsive_animal	1040.044668
19	4	a_occ_vel_NV	akak	a	k	plosive	posterior	voiceless	an_attractive_animal	a_repulsive_animal	a_repulsive_animal	1400.673128
22	10	i_occ_vel_NV	ikik	i	k	plosive	posterior	voiceless	an_attractive_animal	a_repulsive_animal	an_attractive_animal	1672.22541
23	9	i_nas_alv	inin	i	n	sonorant	medium	voiced	an_attractive_animal	a_repulsive_animal	a_repulsive_animal	2175.229025
26	8	i_occ_vel_NV	ikik	i	k	plosive	posterior	voiceless	an_attractive_animal	a_repulsive_animal	an_attractive_animal	1251.296214
27	8	a_occ_vel_NV	akak	a	k	plosive	posterior	voiceless	an_attractive_animal	a_repulsive_animal	a_repulsive_animal	2380.769647
28	4	i_occ_vel_NV	ikik	i	k	plosive	posterior	voiceless	an_attractive_animal	a_repulsive_animal	an_attractive_animal	700.3267973
33	7	i_nas_alv	inin	i	n	sonorant	medium	voiced	an_attractive_animal	a_repulsive_animal	a_repulsive_animal	932.512464
34	9	i_occ_vel_NV	ikik	i	k	plosive	posterior	voiceless	an_attractive_animal	a_repulsive_animal	an_attractive_animal	1496.429348
36	8	a_nas_alv	anan	a	n	sonorant	medium	voiced	an_attractive_animal	a_repulsive_animal	None	2500.066944
36	9	i_occ_vel_NV	ikik	i	k	plosive	posterior	voiceless	an_attractive_animal	a_repulsive_animal	a_repulsive_animal	1689.231711
37	8	i_nas_alv	inin	i	n	sonorant	medium	voiced	an_attractive_animal	a_repulsive_animal	a_repulsive_animal	564.3392995
37	12	a_occ_vel_NV	akak	a	k	plosive	posterior	voiceless	an_attractive_animal	a_repulsive_animal	a_repulsive_animal	903.3934337
38	12	a_nas_alv	anan	a	n	sonorant	medium	voiced	an_attractive_animal	a_repulsive_animal	an_attractive_animal	976.1744483
41	11	a_occ_vel_NV	akak	a	k	plosive	posterior	voiceless	an_attractive_animal	a_repulsive_animal	a_repulsive_animal	1159.408952
43	13	i_nas_alv	inin	i	n	sonorant	medium	voiced	an_attractive_animal	a_repulsive_animal	an_attractive_animal	2037.010014
46	4	a_nas_alv	anan	a	n	sonorant	medium	voiced	an_attractive_animal	a_repulsive_animal	an_attractive_animal	1581.74034
46	7	i_occ_vel_NV	ikik	i	k	plosive	posterior	voiceless	an_attractive_animal	a_repulsive_animal	an_attractive_animal	1720.914344
47	11	a_occ_vel_NV	akak	a	k	plosive	posterior	voiceless	an_attractive_animal	a_repulsive_animal	a_repulsive_animal	969.658716
48	13	i_occ_vel_NV	ikik	i	k	plosive	posterior	voiceless	an_attractive_animal	a_repulsive_animal	a_repulsive_animal	465.745871
49	9	a_occ_vel_NV	akak	a	k	plosive	posterior	voiceless	an_attractive_animal	a_repulsive_animal	a_repulsive_animal	2246.47774
49	11	i_nas_alv	inin	i	n	sonorant	medium	voiced	an_attractive_animal	a_repulsive_animal	an_attractive_animal	2215.123198
50	4	a_nas_alv	anan	a	n	sonorant	medium	voiced	an_attractive_animal	a_repulsive_animal	a_repulsive_animal	588.3797207
51	7	i_nas_alv	inin	i	n	sonorant	medium	voiced	an_attractive_animal	a_repulsive_animal	an_attractive_animal	1868.071007
53	8	i_nas_alv	inin	i	n	sonorant	medium	voiced	an_attractive_animal	a_repulsive_animal	a_repulsive_animal	1081.523861
55	15	i_nas_alv	inin	i	n	sonorant	medium	voiced	an_attractive_animal	a_repulsive_animal	an_attractive_animal	862.0406692
57	11	i_nas_alv	inin	i	n	sonorant	medium	voiced	an_attractive_animal	a_repulsive_animal	an_attractive_animal	857.1185321
59	4	a_occ_vel_NV	akak	a	k	plosive	posterior	voiceless	an_attractive_animal	a_repulsive_animal	a_repulsive_animal	1506.249122
1	0	u_fric_alv_NV	usus	u	s	fricative	medium	voiceless	a_harmless_animal	a_dangerous_animal	None	2500.056778
1	5	u_nas_bi	umum	u	m	sonorant	anterior	voiced	a_harmless_animal	a_dangerous_animal	a_harmless_animal	1533.086114
1	8	i_occ_bi_V	ibib	i	b	plosive	anterior	voiced	a_harmless_animal	a_dangerous_animal	a_dangerous_animal	2347.36786
1	15	i_app_alv	ilil	i	l	sonorant	medium	voiced	a_harmless_animal	a_dangerous_animal	a_harmless_animal	975.798263
12	0	u_fric_alv_NV	usus	u	s	fricative	medium	voiceless	a_harmless_animal	a_dangerous_animal	None	2500.021685
2	9	i_occ_alv_V	idid	i	d	plosive	medium	voiced	a_harmless_animal	a_dangerous_animal	a_harmless_animal	613.8276533
2	10	i_occ_vel_V	igig	i	g	plosive	posterior	voiced	a_harmless_animal	a_dangerous_animal	a_harmless_animal	927.5944231
4	5	u_occ_bi_V	ubub	u	b	plosive	anterior	voiced	a_harmless_animal	a_dangerous_animal	a_dangerous_animal	1412.321095
4	6	i_nas_bi	imim	i	m	sonorant	anterior	voiced	a_harmless_animal	a_dangerous_animal	a_harmless_animal	1212.084514
4	12	i_occ_vel_V	igig	i	g	plosive	posterior	voiced	a_harmless_animal	a_dangerous_animal	a_harmless_animal	1831.666792
5	6	i_occ_vel_NV	ikik	i	k	plosive	posterior	voiceless	a_harmless_animal	a_dangerous_animal	a_dangerous_animal	1158.762693
5	15	i_app_alv	ilil	i	l	sonorant	medium	voiced	a_harmless_animal	a_dangerous_animal	a_harmless_animal	1471.620681
6	4	u_occ_bi_V	ubub	u	b	plosive	anterior	voiced	a_harmless_animal	a_dangerous_animal	a_harmless_animal	960.7081811
6	7	i_occ_bi_NV	ipip	i	p	plosive	anterior	voiceless	a_harmless_animal	a_dangerous_animal	a_harmless_animal	776.0125965
6	8	i_occ_alv_V	idid	i	d	plosive	medium	voiced	a_harmless_animal	a_dangerous_animal	a_dangerous_animal	1376.798155
6	9	u_occ_vel_NV	ukuk	u	k	plosive	posterior	voiceless	a_harmless_animal	a_dangerous_animal	a_harmless_animal	1241.600224
6	13	i_nas_bi	imim	i	m	sonorant	anterior	voiced	a_harmless_animal	a_dangerous_animal	a_harmless_animal	1454.627289
8	6	i_occ_bi_NV	ipip	i	p	plosive	anterior	voiceless	a_harmless_animal	a_dangerous_animal	a_dangerous_animal	921.8672768
8	9	i_occ_vel_V	igig	i	g	plosive	posterior	voiced	a_harmless_animal	a_dangerous_animal	a_harmless_animal	526.2975633
9	6	u_nas_bi	umum	u	m	sonorant	anterior	voiced	a_harmless_animal	a_dangerous_animal	a_harmless_animal	371.5960824
9	10	i_app_alv	ilil	i	l	sonorant	medium	voiced	a_harmless_animal	a_dangerous_animal	a_harmless_animal	862.8431396
9	14	u_occ_bi_NV	upup	u	p	plosive	anterior	voiceless	a_harmless_animal	a_dangerous_animal	a_harmless_animal	579.1002696
9	15	u_occ_vel_V	ugug	u	g	plosive	posterior	voiced	a_harmless_animal	a_dangerous_animal	a_harmless_animal	485.9059363
51	3	u_fric_alv_NV	usus	u	s	fricative	medium	voiceless	a_harmless_animal	a_dangerous_animal	None	2500.043286
10	4	i_nas_bi	imim	i	m	sonorant	anterior	voiced	a_harmless_animal	a_dangerous_animal	a_harmless_animal	1313.839274
10	6	u_occ_vel_NV	ukuk	u	k	plosive	posterior	voiceless	a_harmless_animal	a_dangerous_animal	a_dangerous_animal	860.3621156
10	14	i_occ_bi_NV	ipip	i	p	plosive	anterior	voiceless	a_harmless_animal	a_dangerous_animal	a_harmless_animal	1367.426611
11	6	i_occ_bi_V	ibib	i	b	plosive	anterior	voiced	a_harmless_animal	a_dangerous_animal	a_harmless_animal	1048.087304
11	13	i_app_alv	ilil	i	l	sonorant	medium	voiced	a_harmless_animal	a_dangerous_animal	a_harmless_animal	1216.585715
12	4	u_occ_bi_V	ubub	u	b	plosive	anterior	voiced	a_harmless_animal	a_dangerous_animal	a_dangerous_animal	1253.586212
12	5	i_occ_bi_NV	ipip	i	p	plosive	anterior	voiceless	a_harmless_animal	a_dangerous_animal	a_harmless_animal	1482.35788
12	6	u_occ_vel_NV	ukuk	u	k	plosive	posterior	voiceless	a_harmless_animal	a_dangerous_animal	a_dangerous_animal	1758.088903
12	10	i_nas_bi	imim	i	m	sonorant	anterior	voiced	a_harmless_animal	a_dangerous_animal	None	2500.030624
12	11	i_occ_vel_V	igig	i	g	plosive	posterior	voiced	a_harmless_animal	a_dangerous_animal	a_harmless_animal	749.9684658
13	5	u_nas_bi	umum	u	m	sonorant	anterior	voiced	a_harmless_animal	a_dangerous_animal	None	2500.030955
13	8	i_occ_bi_V	ibib	i	b	plosive	anterior	voiced	a_harmless_animal	a_dangerous_animal	a_harmless_animal	1291.320025
13	10	u_occ_vel_V	ugug	u	g	plosive	posterior	voiced	a_harmless_animal	a_dangerous_animal	a_harmless_animal	806.9482577
14	8	u_occ_vel_NV	ukuk	u	k	plosive	posterior	voiceless	a_harmless_animal	a_dangerous_animal	a_dangerous_animal	1067.089617
14	11	u_occ_bi_V	ubub	u	b	plosive	anterior	voiced	a_harmless_animal	a_dangerous_animal	a_dangerous_animal	508.491068
14	12	i_occ_alv_V	idid	i	d	plosive	medium	voiced	a_harmless_animal	a_dangerous_animal	a_harmless_animal	1156.245582
14	14	i_occ_vel_V	igig	i	g	plosive	posterior	voiced	a_harmless_animal	a_dangerous_animal	a_harmless_animal	908.7645964
15	2	u_fric_alv_NV	usus	u	s	fricative	medium	voiceless	a_harmless_animal	a_dangerous_animal	a_dangerous_animal	1615.66475
15	5	i_occ_bi_V	ibib	i	b	plosive	anterior	voiced	a_harmless_animal	a_dangerous_animal	a_harmless_animal	784.6067921
15	11	u_occ_bi_NV	upup	u	p	plosive	anterior	voiceless	a_harmless_animal	a_dangerous_animal	a_dangerous_animal	955.303164
15	13	i_app_alv	ilil	i	l	sonorant	medium	voiced	a_harmless_animal	a_dangerous_animal	a_harmless_animal	1345.846602
15	14	u_occ_vel_V	ugug	u	g	plosive	posterior	voiced	a_harmless_animal	a_dangerous_animal	a_harmless_animal	1307.584074
19	2	u_fric_alv_NV	usus	u	s	fricative	medium	voiceless	a_harmless_animal	a_dangerous_animal	a_dangerous_animal	2240.437844
21	1	u_fric_alv_NV	usus	u	s	fricative	medium	voiceless	a_harmless_animal	a_dangerous_animal	a_dangerous_animal	1524.817689
16	5	i_occ_alv_V	idid	i	d	plosive	medium	voiced	a_harmless_animal	a_dangerous_animal	None	2500.02334
16	6	u_occ_vel_NV	ukuk	u	k	plosive	posterior	voiceless	a_harmless_animal	a_dangerous_animal	a_dangerous_animal	1304.531626
40	2	u_fric_alv_NV	usus	u	s	fricative	medium	voiceless	a_harmless_animal	a_dangerous_animal	a_dangerous_animal	1406.432041
41	3	u_fric_alv_NV	usus	u	s	fricative	medium	voiceless	a_harmless_animal	a_dangerous_animal	a_dangerous_animal	424.9071997
17	6	i_occ_bi_V	ibib	i	b	plosive	anterior	voiced	a_harmless_animal	a_dangerous_animal	None	2500.026982
17	11	i_occ_vel_NV	ikik	i	k	plosive	posterior	voiceless	a_harmless_animal	a_dangerous_animal	a_dangerous_animal	1337.807939
17	15	i_app_alv	ilil	i	l	sonorant	medium	voiced	a_harmless_animal	a_dangerous_animal	a_harmless_animal	821.8238076
42	2	u_fric_alv_NV	usus	u	s	fricative	medium	voiceless	a_harmless_animal	a_dangerous_animal	a_dangerous_animal	1125.580979
46	1	u_fric_alv_NV	usus	u	s	fricative	medium	voiceless	a_harmless_animal	a_dangerous_animal	a_dangerous_animal	1461.749193
18	8	u_occ_vel_NV	ukuk	u	k	plosive	posterior	voiceless	a_harmless_animal	a_dangerous_animal	a_dangerous_animal	614.5940758
49	1	u_fric_alv_NV	usus	u	s	fricative	medium	voiceless	a_harmless_animal	a_dangerous_animal	a_dangerous_animal	729.3981426
57	1	u_fric_alv_NV	usus	u	s	fricative	medium	voiceless	a_harmless_animal	a_dangerous_animal	a_dangerous_animal	1072.725967
19	6	u_occ_bi_NV	upup	u	p	plosive	anterior	voiceless	a_harmless_animal	a_dangerous_animal	a_harmless_animal	1873.167166
19	13	u_occ_vel_V	ugug	u	g	plosive	posterior	voiced	a_harmless_animal	a_dangerous_animal	a_dangerous_animal	1175.327683
20	5	i_occ_bi_NV	ipip	i	p	plosive	anterior	voiceless	a_harmless_animal	a_dangerous_animal	a_dangerous_animal	2126.724906
20	7	i_nas_bi	imim	i	m	sonorant	anterior	voiced	a_harmless_animal	a_dangerous_animal	a_harmless_animal	911.2376748
20	11	u_occ_bi_V	ubub	u	b	plosive	anterior	voiced	a_harmless_animal	a_dangerous_animal	a_harmless_animal	2050.26507
21	5	u_nas_bi	umum	u	m	sonorant	anterior	voiced	a_harmless_animal	a_dangerous_animal	a_dangerous_animal	843.4912186
21	6	i_occ_vel_NV	ikik	i	k	plosive	posterior	voiceless	a_harmless_animal	a_dangerous_animal	a_dangerous_animal	1533.254627
21	11	u_occ_bi_NV	upup	u	p	plosive	anterior	voiceless	a_harmless_animal	a_dangerous_animal	a_harmless_animal	2017.096685
21	13	u_occ_vel_V	ugug	u	g	plosive	posterior	voiced	a_harmless_animal	a_dangerous_animal	a_harmless_animal	1241.518781
21	15	i_app_alv	ilil	i	l	sonorant	medium	voiced	a_harmless_animal	a_dangerous_animal	a_harmless_animal	2031.048555
6	0	u_fric_alv_NV	usus	u	s	fricative	medium	voiceless	a_harmless_animal	a_dangerous_animal	a_harmless_animal	1960.832332
9	1	u_fric_alv_NV	usus	u	s	fricative	medium	voiceless	a_harmless_animal	a_dangerous_animal	a_harmless_animal	909.8508307
10	0	u_fric_alv_NV	usus	u	s	fricative	medium	voiceless	a_harmless_animal	a_dangerous_animal	a_harmless_animal	1136.159683
14	3	u_fric_alv_NV	usus	u	s	fricative	medium	voiceless	a_harmless_animal	a_dangerous_animal	a_harmless_animal	1582.922119
22	7	i_occ_alv_V	idid	i	d	plosive	medium	voiced	a_harmless_animal	a_dangerous_animal	None	2500.03261
22	9	i_occ_vel_V	igig	i	g	plosive	posterior	voiced	a_harmless_animal	a_dangerous_animal	a_dangerous_animal	1470.487435
22	15	i_nas_bi	imim	i	m	sonorant	anterior	voiced	a_harmless_animal	a_dangerous_animal	a_harmless_animal	841.0889888
18	3	u_fric_alv_NV	usus	u	s	fricative	medium	voiceless	a_harmless_animal	a_dangerous_animal	a_harmless_animal	1453.349366
23	0	u_fric_alv_NV	usus	u	s	fricative	medium	voiceless	a_harmless_animal	a_dangerous_animal	a_harmless_animal	883.5974649
24	3	u_fric_alv_NV	usus	u	s	fricative	medium	voiceless	a_harmless_animal	a_dangerous_animal	a_harmless_animal	1179.013464
26	2	u_fric_alv_NV	usus	u	s	fricative	medium	voiceless	a_harmless_animal	a_dangerous_animal	a_harmless_animal	1652.981417
23	11	i_occ_bi_V	ibib	i	b	plosive	anterior	voiced	a_harmless_animal	a_dangerous_animal	None	2500.034597
28	3	u_fric_alv_NV	usus	u	s	fricative	medium	voiceless	a_harmless_animal	a_dangerous_animal	a_harmless_animal	911.0165213
32	0	u_fric_alv_NV	usus	u	s	fricative	medium	voiceless	a_harmless_animal	a_dangerous_animal	a_harmless_animal	904.1009755
33	2	u_fric_alv_NV	usus	u	s	fricative	medium	voiceless	a_harmless_animal	a_dangerous_animal	a_harmless_animal	1209.838117
34	0	u_fric_alv_NV	usus	u	s	fricative	medium	voiceless	a_harmless_animal	a_dangerous_animal	a_harmless_animal	1968.400741
24	6	i_occ_vel_V	igig	i	g	plosive	posterior	voiced	a_harmless_animal	a_dangerous_animal	a_dangerous_animal	1331.120695
24	12	i_occ_bi_NV	ipip	i	p	plosive	anterior	voiceless	a_harmless_animal	a_dangerous_animal	None	2500.025327
35	3	u_fric_alv_NV	usus	u	s	fricative	medium	voiceless	a_harmless_animal	a_dangerous_animal	a_harmless_animal	2409.615499
26	9	i_nas_bi	imim	i	m	sonorant	anterior	voiced	a_harmless_animal	a_dangerous_animal	a_harmless_animal	1652.066345
26	10	u_occ_vel_NV	ukuk	u	k	plosive	posterior	voiceless	a_harmless_animal	a_dangerous_animal	a_harmless_animal	1718.760667
26	12	i_occ_bi_NV	ipip	i	p	plosive	anterior	voiceless	a_harmless_animal	a_dangerous_animal	a_harmless_animal	1776.286059
26	15	i_occ_alv_V	idid	i	d	plosive	medium	voiced	a_harmless_animal	a_dangerous_animal	a_harmless_animal	1180.561207
50	3	u_fric_alv_NV	usus	u	s	fricative	medium	voiceless	a_harmless_animal	a_dangerous_animal	a_harmless_animal	1277.892463
27	4	i_occ_vel_NV	ikik	i	k	plosive	posterior	voiceless	a_harmless_animal	a_dangerous_animal	a_harmless_animal	2102.837021
27	5	u_occ_vel_V	ugug	u	g	plosive	posterior	voiced	a_harmless_animal	a_dangerous_animal	a_dangerous_animal	2015.572448
27	7	i_app_alv	ilil	i	l	sonorant	medium	voiced	a_harmless_animal	a_dangerous_animal	a_harmless_animal	2239.060932
27	12	u_occ_bi_NV	upup	u	p	plosive	anterior	voiceless	a_harmless_animal	a_dangerous_animal	a_harmless_animal	1395.733261
27	13	u_nas_bi	umum	u	m	sonorant	anterior	voiced	a_harmless_animal	a_dangerous_animal	a_harmless_animal	1041.538447
28	6	u_occ_vel_NV	ukuk	u	k	plosive	posterior	voiceless	a_harmless_animal	a_dangerous_animal	a_harmless_animal	470.9886718
28	10	i_occ_bi_NV	ipip	i	p	plosive	anterior	voiceless	a_harmless_animal	a_dangerous_animal	a_harmless_animal	695.1922628
28	11	i_occ_vel_V	igig	i	g	plosive	posterior	voiced	a_harmless_animal	a_dangerous_animal	a_harmless_animal	470.9946311
32	5	u_occ_bi_V	ubub	u	b	plosive	anterior	voiced	a_harmless_animal	a_dangerous_animal	a_dangerous_animal	547.719641
32	7	i_occ_alv_V	idid	i	d	plosive	medium	voiced	a_harmless_animal	a_dangerous_animal	a_harmless_animal	631.3100639
32	10	i_occ_vel_V	igig	i	g	plosive	posterior	voiced	a_harmless_animal	a_dangerous_animal	a_harmless_animal	608.72744
33	12	i_occ_bi_V	ibib	i	b	plosive	anterior	voiced	a_harmless_animal	a_dangerous_animal	a_harmless_animal	1323.839407
33	13	i_occ_vel_NV	ikik	i	k	plosive	posterior	voiceless	a_harmless_animal	a_dangerous_animal	a_harmless_animal	376.9785233
33	15	i_app_alv	ilil	i	l	sonorant	medium	voiced	a_harmless_animal	a_dangerous_animal	a_harmless_animal	452.6677555
34	4	i_nas_bi	imim	i	m	sonorant	anterior	voiced	a_harmless_animal	a_dangerous_animal	a_harmless_animal	1016.950279
34	7	i_occ_vel_V	igig	i	g	plosive	posterior	voiced	a_harmless_animal	a_dangerous_animal	a_harmless_animal	1216.848356
34	13	i_occ_alv_V	idid	i	d	plosive	medium	voiced	a_harmless_animal	a_dangerous_animal	a_harmless_animal	1416.284567
34	15	i_occ_bi_NV	ipip	i	p	plosive	anterior	voiceless	a_harmless_animal	a_dangerous_animal	a_harmless_animal	1276.483585
35	4	u_occ_vel_V	ugug	u	g	plosive	posterior	voiced	a_harmless_animal	a_dangerous_animal	a_harmless_animal	1622.189691
35	8	i_app_alv	ilil	i	l	sonorant	medium	voiced	a_harmless_animal	a_dangerous_animal	a_harmless_animal	1866.678236
36	5	i_occ_bi_NV	ipip	i	p	plosive	anterior	voiceless	a_harmless_animal	a_dangerous_animal	a_dangerous_animal	2102.089448
36	6	i_occ_alv_V	idid	i	d	plosive	medium	voiced	a_harmless_animal	a_dangerous_animal	a_dangerous_animal	2341.527565
36	13	u_occ_vel_NV	ukuk	u	k	plosive	posterior	voiceless	a_harmless_animal	a_dangerous_animal	a_harmless_animal	1113.743777
37	11	i_occ_bi_V	ibib	i	b	plosive	anterior	voiced	a_harmless_animal	a_dangerous_animal	a_dangerous_animal	163.2711803
37	14	u_nas_bi	umum	u	m	sonorant	anterior	voiced	a_harmless_animal	a_dangerous_animal	a_harmless_animal	311.7013073
38	6	u_occ_vel_NV	ukuk	u	k	plosive	posterior	voiceless	a_harmless_animal	a_dangerous_animal	a_dangerous_animal	2261.61316
38	8	i_occ_vel_V	igig	i	g	plosive	posterior	voiced	a_harmless_animal	a_dangerous_animal	a_harmless_animal	2097.9865
38	11	u_occ_bi_V	ubub	u	b	plosive	anterior	voiced	a_harmless_animal	a_dangerous_animal	a_dangerous_animal	885.2788861
40	4	i_occ_alv_V	idid	i	d	plosive	medium	voiced	a_harmless_animal	a_dangerous_animal	a_dangerous_animal	728.2113435
40	9	i_occ_bi_NV	ipip	i	p	plosive	anterior	voiceless	a_harmless_animal	a_dangerous_animal	a_harmless_animal	965.3509711
40	12	u_occ_bi_V	ubub	u	b	plosive	anterior	voiced	a_harmless_animal	a_dangerous_animal	a_harmless_animal	939.3822767
41	13	i_occ_vel_NV	ikik	i	k	plosive	posterior	voiceless	a_harmless_animal	a_dangerous_animal	a_dangerous_animal	652.8244092
41	15	u_occ_bi_NV	upup	u	p	plosive	anterior	voiceless	a_harmless_animal	a_dangerous_animal	a_harmless_animal	330.9830606
42	13	i_occ_alv_V	idid	i	d	plosive	medium	voiced	a_harmless_animal	a_dangerous_animal	a_harmless_animal	1714.471252
42	14	i_occ_bi_NV	ipip	i	p	plosive	anterior	voiceless	a_harmless_animal	a_dangerous_animal	a_harmless_animal	1152.944069
43	5	u_occ_vel_V	ugug	u	g	plosive	posterior	voiced	a_harmless_animal	a_dangerous_animal	a_dangerous_animal	688.0825487
43	8	i_occ_vel_NV	ikik	i	k	plosive	posterior	voiceless	a_harmless_animal	a_dangerous_animal	a_dangerous_animal	1677.941119
43	14	i_occ_bi_V	ibib	i	b	plosive	anterior	voiced	a_harmless_animal	a_dangerous_animal	a_harmless_animal	1607.781581
44	5	i_nas_bi	imim	i	m	sonorant	anterior	voiced	a_harmless_animal	a_dangerous_animal	a_harmless_animal	702.8873646
44	7	i_occ_bi_NV	ipip	i	p	plosive	anterior	voiceless	a_harmless_animal	a_dangerous_animal	a_harmless_animal	1098.655474
44	11	u_occ_vel_NV	ukuk	u	k	plosive	posterior	voiceless	a_harmless_animal	a_dangerous_animal	a_dangerous_animal	1172.427354
44	15	i_occ_alv_V	idid	i	d	plosive	medium	voiced	a_harmless_animal	a_dangerous_animal	a_harmless_animal	481.3804564
45	8	i_occ_vel_NV	ikik	i	k	plosive	posterior	voiceless	a_harmless_animal	a_dangerous_animal	a_dangerous_animal	1263.130063
45	9	i_app_alv	ilil	i	l	sonorant	medium	voiced	a_harmless_animal	a_dangerous_animal	a_harmless_animal	553.1211246
45	15	u_occ_vel_V	ugug	u	g	plosive	posterior	voiced	a_harmless_animal	a_dangerous_animal	a_dangerous_animal	2242.096169
46	12	i_nas_bi	imim	i	m	sonorant	anterior	voiced	a_harmless_animal	a_dangerous_animal	a_harmless_animal	1890.240425
47	4	u_occ_vel_V	ugug	u	g	plosive	posterior	voiced	a_harmless_animal	a_dangerous_animal	a_harmless_animal	1963.875403
47	10	u_occ_bi_NV	upup	u	p	plosive	anterior	voiceless	a_harmless_animal	a_dangerous_animal	a_harmless_animal	1803.812406
47	13	i_occ_bi_V	ibib	i	b	plosive	anterior	voiced	a_harmless_animal	a_dangerous_animal	a_harmless_animal	1273.772253
48	4	u_occ_bi_V	ubub	u	b	plosive	anterior	voiced	a_harmless_animal	a_dangerous_animal	a_harmless_animal	439.1249969
48	9	i_occ_bi_NV	ipip	i	p	plosive	anterior	voiceless	a_harmless_animal	a_dangerous_animal	a_harmless_animal	476.5254963
48	10	i_nas_bi	imim	i	m	sonorant	anterior	voiced	a_harmless_animal	a_dangerous_animal	a_dangerous_animal	496.2732922
48	11	i_occ_alv_V	idid	i	d	plosive	medium	voiced	a_harmless_animal	a_dangerous_animal	a_harmless_animal	616.4763543
49	6	u_nas_bi	umum	u	m	sonorant	anterior	voiced	a_harmless_animal	a_dangerous_animal	a_harmless_animal	553.0231888
49	12	i_occ_vel_NV	ikik	i	k	plosive	posterior	voiceless	a_harmless_animal	a_dangerous_animal	a_harmless_animal	1172.445081
50	12	i_nas_bi	imim	i	m	sonorant	anterior	voiced	a_harmless_animal	a_dangerous_animal	a_harmless_animal	827.6820579
51	4	u_occ_bi_NV	upup	u	p	plosive	anterior	voiceless	a_harmless_animal	a_dangerous_animal	a_dangerous_animal	1897.243977
51	14	u_occ_vel_V	ugug	u	g	plosive	posterior	voiced	a_harmless_animal	a_dangerous_animal	a_harmless_animal	2057.052715
53	4	u_nas_bi	umum	u	m	sonorant	anterior	voiced	a_harmless_animal	a_dangerous_animal	a_harmless_animal	1320.35925
53	12	i_occ_vel_NV	ikik	i	k	plosive	posterior	voiceless	a_harmless_animal	a_dangerous_animal	a_harmless_animal	796.5847803
53	14	i_app_alv	ilil	i	l	sonorant	medium	voiced	a_harmless_animal	a_dangerous_animal	a_dangerous_animal	1315.076501
53	15	i_occ_bi_V	ibib	i	b	plosive	anterior	voiced	a_harmless_animal	a_dangerous_animal	a_harmless_animal	1380.227759
55	4	i_app_alv	ilil	i	l	sonorant	medium	voiced	a_harmless_animal	a_dangerous_animal	a_harmless_animal	1414.754563
55	6	u_occ_bi_NV	upup	u	p	plosive	anterior	voiceless	a_harmless_animal	a_dangerous_animal	a_harmless_animal	1798.055217
55	14	u_occ_vel_V	ugug	u	g	plosive	posterior	voiced	a_harmless_animal	a_dangerous_animal	a_harmless_animal	2382.93911
57	4	u_nas_bi	umum	u	m	sonorant	anterior	voiced	a_harmless_animal	a_dangerous_animal	a_harmless_animal	800.0206198
57	5	i_app_alv	ilil	i	l	sonorant	medium	voiced	a_harmless_animal	a_dangerous_animal	a_dangerous_animal	844.0385507
57	6	i_occ_bi_V	ibib	i	b	plosive	anterior	voiced	a_harmless_animal	a_dangerous_animal	a_dangerous_animal	1387.912563
57	9	u_occ_vel_V	ugug	u	g	plosive	posterior	voiced	a_harmless_animal	a_dangerous_animal	a_dangerous_animal	1130.319778
59	9	i_occ_vel_NV	ikik	i	k	plosive	posterior	voiceless	a_harmless_animal	a_dangerous_animal	a_harmless_animal	1442.45074
59	12	i_app_alv	ilil	i	l	sonorant	medium	voiced	a_harmless_animal	a_dangerous_animal	a_harmless_animal	648.2936731
59	13	u_occ_bi_NV	upup	u	p	plosive	anterior	voiceless	a_harmless_animal	a_dangerous_animal	a_dangerous_animal	1363.098012
1	4	u_occ_vel_V	ugug	u	g	plosive	posterior	voiced	a_dangerous_animal	a_harmless_animal	a_harmless_animal	696.3612641
1	9	u_occ_bi_NV	upup	u	p	plosive	anterior	voiceless	a_dangerous_animal	a_harmless_animal	a_harmless_animal	356.2040664
1	12	i_occ_vel_NV	ikik	i	k	plosive	posterior	voiceless	a_dangerous_animal	a_harmless_animal	a_dangerous_animal	1775.429917
8	1	u_fric_alv_NV	usus	u	s	fricative	medium	voiceless	a_dangerous_animal	a_harmless_animal	None	2500.028637
2	5	u_occ_vel_NV	ukuk	u	k	plosive	posterior	voiceless	a_dangerous_animal	a_harmless_animal	a_dangerous_animal	915.6114148
2	6	i_occ_bi_NV	ipip	i	p	plosive	anterior	voiceless	a_dangerous_animal	a_harmless_animal	a_dangerous_animal	1067.40347
2	7	i_nas_bi	imim	i	m	sonorant	anterior	voiced	a_dangerous_animal	a_harmless_animal	a_harmless_animal	516.2056158
2	14	u_occ_bi_V	ubub	u	b	plosive	anterior	voiced	a_dangerous_animal	a_harmless_animal	a_harmless_animal	653.7895539
13	1	u_fric_alv_NV	usus	u	s	fricative	medium	voiceless	a_dangerous_animal	a_harmless_animal	None	2500.031617
4	4	i_occ_alv_V	idid	i	d	plosive	medium	voiced	a_dangerous_animal	a_harmless_animal	a_harmless_animal	1379.513244
4	8	u_occ_vel_NV	ukuk	u	k	plosive	posterior	voiceless	a_dangerous_animal	a_harmless_animal	a_dangerous_animal	1319.63462
4	9	i_occ_bi_NV	ipip	i	p	plosive	anterior	voiceless	a_dangerous_animal	a_harmless_animal	a_harmless_animal	1333.356729
16	1	u_fric_alv_NV	usus	u	s	fricative	medium	voiceless	a_dangerous_animal	a_harmless_animal	None	2500.029962
5	8	i_occ_bi_V	ibib	i	b	plosive	anterior	voiced	a_dangerous_animal	a_harmless_animal	a_harmless_animal	1121.309295
5	12	u_nas_bi	umum	u	m	sonorant	anterior	voiced	a_dangerous_animal	a_harmless_animal	a_harmless_animal	2137.354839
5	13	u_occ_bi_NV	upup	u	p	plosive	anterior	voiceless	a_dangerous_animal	a_harmless_animal	None	2500.030293
5	14	u_occ_vel_V	ugug	u	g	plosive	posterior	voiced	a_dangerous_animal	a_harmless_animal	a_dangerous_animal	1256.873056
6	12	i_occ_vel_V	igig	i	g	plosive	posterior	voiced	a_dangerous_animal	a_harmless_animal	a_harmless_animal	2162.855025
8	7	u_occ_bi_V	ubub	u	b	plosive	anterior	voiced	a_dangerous_animal	a_harmless_animal	a_dangerous_animal	192.7100801
8	12	u_occ_vel_NV	ukuk	u	k	plosive	posterior	voiceless	a_dangerous_animal	a_harmless_animal	a_dangerous_animal	1186.678351
8	13	i_occ_alv_V	idid	i	d	plosive	medium	voiced	a_dangerous_animal	a_harmless_animal	a_harmless_animal	602.516051
8	15	i_nas_bi	imim	i	m	sonorant	anterior	voiced	a_dangerous_animal	a_harmless_animal	a_harmless_animal	815.0620736
44	3	u_fric_alv_NV	usus	u	s	fricative	medium	voiceless	a_dangerous_animal	a_harmless_animal	None	2500.081406
9	12	i_occ_vel_NV	ikik	i	k	plosive	posterior	voiceless	a_dangerous_animal	a_harmless_animal	a_dangerous_animal	633.4573404
9	13	i_occ_bi_V	ibib	i	b	plosive	anterior	voiced	a_dangerous_animal	a_harmless_animal	a_harmless_animal	420.2905652
10	7	i_occ_alv_V	idid	i	d	plosive	medium	voiced	a_dangerous_animal	a_harmless_animal	a_dangerous_animal	1347.145713
10	11	i_occ_vel_V	igig	i	g	plosive	posterior	voiced	a_dangerous_animal	a_harmless_animal	a_dangerous_animal	1453.19244
10	12	u_occ_bi_V	ubub	u	b	plosive	anterior	voiced	a_dangerous_animal	a_harmless_animal	a_dangerous_animal	1522.013874
11	7	i_occ_vel_NV	ikik	i	k	plosive	posterior	voiceless	a_dangerous_animal	a_harmless_animal	a_dangerous_animal	959.8553497
11	9	u_occ_vel_V	ugug	u	g	plosive	posterior	voiced	a_dangerous_animal	a_harmless_animal	a_harmless_animal	580.4314942
11	14	u_occ_bi_NV	upup	u	p	plosive	anterior	voiceless	a_dangerous_animal	a_harmless_animal	a_harmless_animal	570.4120506
11	15	u_nas_bi	umum	u	m	sonorant	anterior	voiced	a_dangerous_animal	a_harmless_animal	a_harmless_animal	413.1673049
12	14	i_occ_alv_V	idid	i	d	plosive	medium	voiced	a_dangerous_animal	a_harmless_animal	a_harmless_animal	499.3284285
13	4	i_occ_vel_NV	ikik	i	k	plosive	posterior	voiceless	a_dangerous_animal	a_harmless_animal	None	2500.039563
13	7	u_occ_bi_NV	upup	u	p	plosive	anterior	voiceless	a_dangerous_animal	a_harmless_animal	a_dangerous_animal	2133.540935
13	13	i_app_alv	ilil	i	l	sonorant	medium	voiced	a_dangerous_animal	a_harmless_animal	a_harmless_animal	1615.264158
14	9	i_nas_bi	imim	i	m	sonorant	anterior	voiced	a_dangerous_animal	a_harmless_animal	a_harmless_animal	1110.829335
14	10	i_occ_bi_NV	ipip	i	p	plosive	anterior	voiceless	a_dangerous_animal	a_harmless_animal	a_dangerous_animal	1448.663429
4	2	u_fric_alv_NV	usus	u	s	fricative	medium	voiceless	a_dangerous_animal	a_harmless_animal	a_dangerous_animal	1260.30259
5	3	u_fric_alv_NV	usus	u	s	fricative	medium	voiceless	a_dangerous_animal	a_harmless_animal	a_dangerous_animal	1731.838517
11	1	u_fric_alv_NV	usus	u	s	fricative	medium	voiceless	a_dangerous_animal	a_harmless_animal	a_dangerous_animal	1432.472545
15	6	i_occ_vel_NV	ikik	i	k	plosive	posterior	voiceless	a_dangerous_animal	a_harmless_animal	None	2500.028968
15	7	u_nas_bi	umum	u	m	sonorant	anterior	voiced	a_dangerous_animal	a_harmless_animal	a_harmless_animal	1090.095536
17	1	u_fric_alv_NV	usus	u	s	fricative	medium	voiceless	a_dangerous_animal	a_harmless_animal	a_dangerous_animal	2423.432732
20	2	u_fric_alv_NV	usus	u	s	fricative	medium	voiceless	a_dangerous_animal	a_harmless_animal	a_dangerous_animal	1356.765558
16	7	u_occ_bi_V	ubub	u	b	plosive	anterior	voiced	a_dangerous_animal	a_harmless_animal	a_harmless_animal	2418.223376
16	9	i_nas_bi	imim	i	m	sonorant	anterior	voiced	a_dangerous_animal	a_harmless_animal	a_harmless_animal	698.739657
16	13	i_occ_vel_V	igig	i	g	plosive	posterior	voiced	a_dangerous_animal	a_harmless_animal	a_harmless_animal	2499.712798
16	15	i_occ_bi_NV	ipip	i	p	plosive	anterior	voiceless	a_dangerous_animal	a_harmless_animal	a_dangerous_animal	1330.208272
22	3	u_fric_alv_NV	usus	u	s	fricative	medium	voiceless	a_dangerous_animal	a_harmless_animal	a_dangerous_animal	1499.411527
27	2	u_fric_alv_NV	usus	u	s	fricative	medium	voiceless	a_dangerous_animal	a_harmless_animal	a_dangerous_animal	2155.301045
17	7	u_nas_bi	umum	u	m	sonorant	anterior	voiced	a_dangerous_animal	a_harmless_animal	a_harmless_animal	1909.778327
17	9	u_occ_bi_NV	upup	u	p	plosive	anterior	voiceless	a_dangerous_animal	a_harmless_animal	a_harmless_animal	2085.250355
17	13	u_occ_vel_V	ugug	u	g	plosive	posterior	voiced	a_dangerous_animal	a_harmless_animal	a_dangerous_animal	1794.260074
43	2	u_fric_alv_NV	usus	u	s	fricative	medium	voiceless	a_dangerous_animal	a_harmless_animal	a_dangerous_animal	1338.325062
47	3	u_fric_alv_NV	usus	u	s	fricative	medium	voiceless	a_dangerous_animal	a_harmless_animal	a_dangerous_animal	1565.530297
18	4	u_occ_bi_V	ubub	u	b	plosive	anterior	voiced	a_dangerous_animal	a_harmless_animal	None	2500.025658
18	7	i_nas_bi	imim	i	m	sonorant	anterior	voiced	a_dangerous_animal	a_harmless_animal	a_harmless_animal	509.7719703
18	9	i_occ_alv_V	idid	i	d	plosive	medium	voiced	a_dangerous_animal	a_harmless_animal	a_harmless_animal	662.4112282
18	12	i_occ_vel_V	igig	i	g	plosive	posterior	voiced	a_dangerous_animal	a_harmless_animal	a_harmless_animal	638.8120351
18	15	i_occ_bi_NV	ipip	i	p	plosive	anterior	voiceless	a_dangerous_animal	a_harmless_animal	a_harmless_animal	1272.246532
53	3	u_fric_alv_NV	usus	u	s	fricative	medium	voiceless	a_dangerous_animal	a_harmless_animal	a_dangerous_animal	2245.606301
19	7	i_app_alv	ilil	i	l	sonorant	medium	voiced	a_dangerous_animal	a_harmless_animal	a_dangerous_animal	1996.90021
19	9	i_occ_vel_NV	ikik	i	k	plosive	posterior	voiceless	a_dangerous_animal	a_harmless_animal	None	2500.024002
19	10	u_nas_bi	umum	u	m	sonorant	anterior	voiced	a_dangerous_animal	a_harmless_animal	a_dangerous_animal	1357.109206
19	14	i_occ_bi_V	ibib	i	b	plosive	anterior	voiced	a_dangerous_animal	a_harmless_animal	None	2500.023671
20	8	u_occ_vel_NV	ukuk	u	k	plosive	posterior	voiceless	a_dangerous_animal	a_harmless_animal	a_harmless_animal	1187.051134
20	10	i_occ_alv_V	idid	i	d	plosive	medium	voiced	a_dangerous_animal	a_harmless_animal	None	2500.02334
20	12	i_occ_vel_V	igig	i	g	plosive	posterior	voiced	a_dangerous_animal	a_harmless_animal	a_dangerous_animal	1434.988663
2	1	u_fric_alv_NV	usus	u	s	fricative	medium	voiceless	a_dangerous_animal	a_harmless_animal	a_harmless_animal	965.7023427
21	4	i_occ_bi_V	ibib	i	b	plosive	anterior	voiced	a_dangerous_animal	a_harmless_animal	a_harmless_animal	880.7052544
22	6	u_occ_vel_NV	ukuk	u	k	plosive	posterior	voiceless	a_dangerous_animal	a_harmless_animal	a_dangerous_animal	1513.235604
22	11	i_occ_bi_NV	ipip	i	p	plosive	anterior	voiceless	a_dangerous_animal	a_harmless_animal	None	2500.025658
22	14	u_occ_bi_V	ubub	u	b	plosive	anterior	voiced	a_dangerous_animal	a_harmless_animal	a_harmless_animal	1180.307609
23	4	i_app_alv	ilil	i	l	sonorant	medium	voiced	a_dangerous_animal	a_harmless_animal	a_harmless_animal	825.5274659
23	7	i_occ_vel_NV	ikik	i	k	plosive	posterior	voiceless	a_dangerous_animal	a_harmless_animal	a_harmless_animal	1267.73573
23	8	u_occ_vel_V	ugug	u	g	plosive	posterior	voiced	a_dangerous_animal	a_harmless_animal	a_dangerous_animal	1557.515626
23	13	u_nas_bi	umum	u	m	sonorant	anterior	voiced	a_dangerous_animal	a_harmless_animal	a_dangerous_animal	1047.277512
23	14	u_occ_bi_NV	upup	u	p	plosive	anterior	voiceless	a_dangerous_animal	a_harmless_animal	a_dangerous_animal	1251.084993
24	7	u_occ_bi_V	ubub	u	b	plosive	anterior	voiced	a_dangerous_animal	a_harmless_animal	a_dangerous_animal	1742.909433
24	11	i_nas_bi	imim	i	m	sonorant	anterior	voiced	a_dangerous_animal	a_harmless_animal	a_harmless_animal	1795.844897
24	13	i_occ_alv_V	idid	i	d	plosive	medium	voiced	a_dangerous_animal	a_harmless_animal	a_harmless_animal	1668.279741
24	14	u_occ_vel_NV	ukuk	u	k	plosive	posterior	voiceless	a_dangerous_animal	a_harmless_animal	a_dangerous_animal	1594.059249
36	0	u_fric_alv_NV	usus	u	s	fricative	medium	voiceless	a_dangerous_animal	a_harmless_animal	a_harmless_animal	2107.366598
37	3	u_fric_alv_NV	usus	u	s	fricative	medium	voiceless	a_dangerous_animal	a_harmless_animal	a_harmless_animal	345.4490407
38	3	u_fric_alv_NV	usus	u	s	fricative	medium	voiceless	a_dangerous_animal	a_harmless_animal	a_harmless_animal	2458.28779
26	4	u_occ_bi_V	ubub	u	b	plosive	anterior	voiced	a_dangerous_animal	a_harmless_animal	a_harmless_animal	1060.139505
26	5	i_occ_vel_V	igig	i	g	plosive	posterior	voiced	a_dangerous_animal	a_harmless_animal	a_harmless_animal	980.9668975
45	2	u_fric_alv_NV	usus	u	s	fricative	medium	voiceless	a_dangerous_animal	a_harmless_animal	a_harmless_animal	1472.893342
48	1	u_fric_alv_NV	usus	u	s	fricative	medium	voiceless	a_dangerous_animal	a_harmless_animal	a_harmless_animal	439.7673799
55	2	u_fric_alv_NV	usus	u	s	fricative	medium	voiceless	a_dangerous_animal	a_harmless_animal	a_harmless_animal	1675.186522
27	10	i_occ_bi_V	ibib	i	b	plosive	anterior	voiced	a_dangerous_animal	a_harmless_animal	None	2500.02632
59	1	u_fric_alv_NV	usus	u	s	fricative	medium	voiceless	a_dangerous_animal	a_harmless_animal	a_harmless_animal	1208.428793
28	7	i_occ_alv_V	idid	i	d	plosive	medium	voiced	a_dangerous_animal	a_harmless_animal	a_harmless_animal	1212.718178
28	8	i_nas_bi	imim	i	m	sonorant	anterior	voiced	a_dangerous_animal	a_harmless_animal	a_harmless_animal	443.5418058
28	12	u_occ_bi_V	ubub	u	b	plosive	anterior	voiced	a_dangerous_animal	a_harmless_animal	a_harmless_animal	614.7877506
32	6	u_occ_vel_NV	ukuk	u	k	plosive	posterior	voiceless	a_dangerous_animal	a_harmless_animal	a_harmless_animal	1007.477834
32	12	i_nas_bi	imim	i	m	sonorant	anterior	voiced	a_dangerous_animal	a_harmless_animal	a_harmless_animal	541.3469399
32	14	i_occ_bi_NV	ipip	i	p	plosive	anterior	voiceless	a_dangerous_animal	a_harmless_animal	a_harmless_animal	903.9684562
33	6	u_nas_bi	umum	u	m	sonorant	anterior	voiced	a_dangerous_animal	a_harmless_animal	a_harmless_animal	756.4659325
33	10	u_occ_vel_V	ugug	u	g	plosive	posterior	voiced	a_dangerous_animal	a_harmless_animal	a_harmless_animal	694.1697095
33	14	u_occ_bi_NV	upup	u	p	plosive	anterior	voiceless	a_dangerous_animal	a_harmless_animal	a_harmless_animal	729.15929
34	8	u_occ_vel_NV	ukuk	u	k	plosive	posterior	voiceless	a_dangerous_animal	a_harmless_animal	a_harmless_animal	1257.310098
34	14	u_occ_bi_V	ubub	u	b	plosive	anterior	voiced	a_dangerous_animal	a_harmless_animal	a_harmless_animal	1585.961399
35	6	u_occ_bi_NV	upup	u	p	plosive	anterior	voiceless	a_dangerous_animal	a_harmless_animal	a_harmless_animal	1250.645998
35	12	i_occ_bi_V	ibib	i	b	plosive	anterior	voiced	a_dangerous_animal	a_harmless_animal	a_harmless_animal	1158.686796
35	14	u_nas_bi	umum	u	m	sonorant	anterior	voiced	a_dangerous_animal	a_harmless_animal	a_harmless_animal	1744.864785
35	15	i_occ_vel_NV	ikik	i	k	plosive	posterior	voiceless	a_dangerous_animal	a_harmless_animal	a_harmless_animal	1354.867859
36	4	u_occ_bi_V	ubub	u	b	plosive	anterior	voiced	a_dangerous_animal	a_harmless_animal	a_harmless_animal	850.8337217
36	7	i_nas_bi	imim	i	m	sonorant	anterior	voiced	a_dangerous_animal	a_harmless_animal	a_harmless_animal	2492.798733
36	12	i_occ_vel_V	igig	i	g	plosive	posterior	voiced	a_dangerous_animal	a_harmless_animal	a_harmless_animal	1289.786577
37	4	i_occ_vel_NV	ikik	i	k	plosive	posterior	voiceless	a_dangerous_animal	a_harmless_animal	a_harmless_animal	274.0904123
37	6	u_occ_bi_NV	upup	u	p	plosive	anterior	voiceless	a_dangerous_animal	a_harmless_animal	a_dangerous_animal	270.5244169
37	9	u_occ_vel_V	ugug	u	g	plosive	posterior	voiced	a_dangerous_animal	a_harmless_animal	a_harmless_animal	444.3079128
37	13	i_app_alv	ilil	i	l	sonorant	medium	voiced	a_dangerous_animal	a_harmless_animal	a_harmless_animal	765.3846531
38	5	i_occ_alv_V	idid	i	d	plosive	medium	voiced	a_dangerous_animal	a_harmless_animal	a_harmless_animal	2161.361759
38	7	i_nas_bi	imim	i	m	sonorant	anterior	voiced	a_dangerous_animal	a_harmless_animal	a_harmless_animal	1702.307027
38	14	i_occ_bi_NV	ipip	i	p	plosive	anterior	voiceless	a_dangerous_animal	a_harmless_animal	a_harmless_animal	845.4716663
40	7	u_occ_vel_NV	ukuk	u	k	plosive	posterior	voiceless	a_dangerous_animal	a_harmless_animal	a_dangerous_animal	1116.200881
40	10	i_occ_vel_V	igig	i	g	plosive	posterior	voiced	a_dangerous_animal	a_harmless_animal	a_harmless_animal	793.9116833
40	15	i_nas_bi	imim	i	m	sonorant	anterior	voiced	a_dangerous_animal	a_harmless_animal	a_dangerous_animal	699.3712857
41	6	u_occ_vel_V	ugug	u	g	plosive	posterior	voiced	a_dangerous_animal	a_harmless_animal	a_dangerous_animal	586.2479654
41	8	i_app_alv	ilil	i	l	sonorant	medium	voiced	a_dangerous_animal	a_harmless_animal	a_dangerous_animal	550.2894456
41	10	i_occ_bi_V	ibib	i	b	plosive	anterior	voiced	a_dangerous_animal	a_harmless_animal	a_harmless_animal	1142.975703
41	14	u_nas_bi	umum	u	m	sonorant	anterior	voiced	a_dangerous_animal	a_harmless_animal	a_dangerous_animal	1098.269205
42	5	u_occ_bi_V	ubub	u	b	plosive	anterior	voiced	a_dangerous_animal	a_harmless_animal	a_dangerous_animal	1382.275267
42	7	u_occ_vel_NV	ukuk	u	k	plosive	posterior	voiceless	a_dangerous_animal	a_harmless_animal	a_dangerous_animal	1381.339917
42	12	i_occ_vel_V	igig	i	g	plosive	posterior	voiced	a_dangerous_animal	a_harmless_animal	a_harmless_animal	1150.890962
42	15	i_nas_bi	imim	i	m	sonorant	anterior	voiced	a_dangerous_animal	a_harmless_animal	a_harmless_animal	675.0913541
43	6	u_nas_bi	umum	u	m	sonorant	anterior	voiced	a_dangerous_animal	a_harmless_animal	a_dangerous_animal	1666.645693
43	9	u_occ_bi_NV	upup	u	p	plosive	anterior	voiceless	a_dangerous_animal	a_harmless_animal	a_harmless_animal	1526.830877
43	10	i_app_alv	ilil	i	l	sonorant	medium	voiced	a_dangerous_animal	a_harmless_animal	a_harmless_animal	677.0557635
44	4	i_occ_vel_V	igig	i	g	plosive	posterior	voiced	a_dangerous_animal	a_harmless_animal	a_harmless_animal	629.4910246
44	9	u_occ_bi_V	ubub	u	b	plosive	anterior	voiced	a_dangerous_animal	a_harmless_animal	a_harmless_animal	484.0857425
45	7	i_occ_bi_V	ibib	i	b	plosive	anterior	voiced	a_dangerous_animal	a_harmless_animal	a_dangerous_animal	792.369786
45	11	u_occ_bi_NV	upup	u	p	plosive	anterior	voiceless	a_dangerous_animal	a_harmless_animal	a_harmless_animal	1450.977216
45	13	u_nas_bi	umum	u	m	sonorant	anterior	voiced	a_dangerous_animal	a_harmless_animal	a_harmless_animal	1961.895786
46	5	i_occ_vel_V	igig	i	g	plosive	posterior	voiced	a_dangerous_animal	a_harmless_animal	a_harmless_animal	2441.268647
46	9	u_occ_vel_NV	ukuk	u	k	plosive	posterior	voiceless	a_dangerous_animal	a_harmless_animal	a_dangerous_animal	1821.957805
46	11	u_occ_bi_V	ubub	u	b	plosive	anterior	voiced	a_dangerous_animal	a_harmless_animal	a_dangerous_animal	2372.343877
46	14	i_occ_bi_NV	ipip	i	p	plosive	anterior	voiceless	a_dangerous_animal	a_harmless_animal	a_dangerous_animal	551.7783647
46	15	i_occ_alv_V	idid	i	d	plosive	medium	voiced	a_dangerous_animal	a_harmless_animal	a_dangerous_animal	1132.657446
47	5	u_nas_bi	umum	u	m	sonorant	anterior	voiced	a_dangerous_animal	a_harmless_animal	a_harmless_animal	1959.842432
47	6	i_app_alv	ilil	i	l	sonorant	medium	voiced	a_dangerous_animal	a_harmless_animal	a_harmless_animal	2313.219328
47	15	i_occ_vel_NV	ikik	i	k	plosive	posterior	voiceless	a_dangerous_animal	a_harmless_animal	a_dangerous_animal	1810.967722
48	8	i_occ_vel_V	igig	i	g	plosive	posterior	voiced	a_dangerous_animal	a_harmless_animal	a_dangerous_animal	384.6595953
48	15	u_occ_vel_NV	ukuk	u	k	plosive	posterior	voiceless	a_dangerous_animal	a_harmless_animal	a_dangerous_animal	982.4573926
49	4	i_occ_bi_V	ibib	i	b	plosive	anterior	voiced	a_dangerous_animal	a_harmless_animal	a_harmless_animal	874.0602758
49	8	u_occ_vel_V	ugug	u	g	plosive	posterior	voiced	a_dangerous_animal	a_harmless_animal	a_dangerous_animal	1213.293083
49	10	u_occ_bi_NV	upup	u	p	plosive	anterior	voiceless	a_dangerous_animal	a_harmless_animal	a_harmless_animal	1649.340053
49	15	i_app_alv	ilil	i	l	sonorant	medium	voiced	a_dangerous_animal	a_harmless_animal	a_dangerous_animal	837.5008922
50	7	u_occ_vel_NV	ukuk	u	k	plosive	posterior	voiceless	a_dangerous_animal	a_harmless_animal	a_dangerous_animal	758.6739315
50	8	i_occ_bi_NV	ipip	i	p	plosive	anterior	voiceless	a_dangerous_animal	a_harmless_animal	a_dangerous_animal	929.220272
50	9	i_occ_alv_V	idid	i	d	plosive	medium	voiced	a_dangerous_animal	a_harmless_animal	a_harmless_animal	868.6899517
50	13	i_occ_vel_V	igig	i	g	plosive	posterior	voiced	a_dangerous_animal	a_harmless_animal	a_harmless_animal	927.8891163
50	14	u_occ_bi_V	ubub	u	b	plosive	anterior	voiced	a_dangerous_animal	a_harmless_animal	a_harmless_animal	808.0320049
51	5	u_nas_bi	umum	u	m	sonorant	anterior	voiced	a_dangerous_animal	a_harmless_animal	a_harmless_animal	1478.502483
51	8	i_occ_bi_V	ibib	i	b	plosive	anterior	voiced	a_dangerous_animal	a_harmless_animal	a_harmless_animal	1327.377271
51	12	i_app_alv	ilil	i	l	sonorant	medium	voiced	a_dangerous_animal	a_harmless_animal	a_harmless_animal	1187.052135
51	13	i_occ_vel_NV	ikik	i	k	plosive	posterior	voiceless	a_dangerous_animal	a_harmless_animal	a_dangerous_animal	1547.438317
53	11	u_occ_vel_V	ugug	u	g	plosive	posterior	voiced	a_dangerous_animal	a_harmless_animal	None	2500.047351
53	13	u_occ_bi_NV	upup	u	p	plosive	anterior	voiceless	a_dangerous_animal	a_harmless_animal	a_harmless_animal	728.9610235
55	9	u_nas_bi	umum	u	m	sonorant	anterior	voiced	a_dangerous_animal	a_harmless_animal	a_harmless_animal	876.3825577
55	10	i_occ_bi_V	ibib	i	b	plosive	anterior	voiced	a_dangerous_animal	a_harmless_animal	a_harmless_animal	1568.357342
55	11	i_occ_vel_NV	ikik	i	k	plosive	posterior	voiceless	a_dangerous_animal	a_harmless_animal	a_dangerous_animal	1692.313937
57	12	i_occ_vel_NV	ikik	i	k	plosive	posterior	voiceless	a_dangerous_animal	a_harmless_animal	a_dangerous_animal	708.4887391
57	15	u_occ_bi_NV	upup	u	p	plosive	anterior	voiceless	a_dangerous_animal	a_harmless_animal	a_harmless_animal	1157.194899
59	10	u_occ_vel_V	ugug	u	g	plosive	posterior	voiced	a_dangerous_animal	a_harmless_animal	a_dangerous_animal	1757.760962
59	11	u_nas_bi	umum	u	m	sonorant	anterior	voiced	a_dangerous_animal	a_harmless_animal	a_harmless_animal	1516.73578
59	15	i_occ_bi_V	ibib	i	b	plosive	anterior	voiced	a_dangerous_animal	a_harmless_animal	None	2500.073009
5	0	y_fric_alv_V	yzyz	y	z	z	z	z	a_small_animal	a_large_animal	None	2500.029631
8	2	y_fric_alv_V	yzyz	y	z	z	z	z	a_small_animal	a_large_animal	None	2500.024334
14	0	y_fric_alv_V	yzyz	y	z	z	z	z	a_small_animal	a_large_animal	None	2500.034928
4	13	a_occ_bi_NV	apap	a	p	plosive	anterior	voiceless	a_small_animal	a_large_animal	a_large_animal	881.4355905
5	5	a_occ_bi_V	abab	a	b	plosive	anterior	voiced	a_small_animal	a_large_animal	a_large_animal	565.0259044
5	9	i_occ_bi_NV	ipip	i	p	plosive	anterior	voiceless	a_small_animal	a_large_animal	a_small_animal	715.1354714
6	6	a_occ_bi_NV	apap	a	p	plosive	anterior	voiceless	a_small_animal	a_large_animal	a_small_animal	758.2580788
44	0	y_fric_alv_V	yzyz	y	z	z	z	z	a_small_animal	a_large_animal	None	2500.060413
9	7	a_occ_bi_V	abab	a	b	plosive	anterior	voiced	a_small_animal	a_large_animal	a_small_animal	769.4008363
10	8	a_occ_bi_NV	apap	a	p	plosive	anterior	voiceless	a_small_animal	a_large_animal	a_large_animal	1379.917809
10	15	i_occ_bi_V	ibib	i	b	plosive	anterior	voiced	a_small_animal	a_large_animal	a_small_animal	808.2033367
12	7	i_occ_bi_V	ibib	i	b	plosive	anterior	voiced	a_small_animal	a_large_animal	a_small_animal	1167.874017
12	13	a_occ_bi_NV	apap	a	p	plosive	anterior	voiceless	a_small_animal	a_large_animal	a_small_animal	1317.499231
13	14	i_occ_bi_NV	ipip	i	p	plosive	anterior	voiceless	a_small_animal	a_large_animal	a_small_animal	1317.022493
14	4	a_occ_bi_NV	apap	a	p	plosive	anterior	voiceless	a_small_animal	a_large_animal	a_small_animal	1031.019421
14	15	i_occ_bi_V	ibib	i	b	plosive	anterior	voiced	a_small_animal	a_large_animal	a_small_animal	1330.518151
15	10	a_occ_bi_V	abab	a	b	plosive	anterior	voiced	a_small_animal	a_large_animal	a_large_animal	1035.509697
16	14	a_occ_bi_NV	apap	a	p	plosive	anterior	voiceless	a_small_animal	a_large_animal	a_large_animal	1582.486765
17	8	a_occ_bi_V	abab	a	b	plosive	anterior	voiced	a_small_animal	a_large_animal	a_large_animal	1677.515877
18	5	i_occ_bi_V	ibib	i	b	plosive	anterior	voiced	a_small_animal	a_large_animal	a_small_animal	314.1508088
18	14	a_occ_bi_NV	apap	a	p	plosive	anterior	voiceless	a_small_animal	a_large_animal	a_large_animal	685.4323765
19	15	a_occ_bi_V	abab	a	b	plosive	anterior	voiced	a_small_animal	a_large_animal	a_large_animal	1341.821477
4	1	y_fric_alv_V	yzyz	y	z	z	z	z	a_small_animal	a_large_animal	a_large_animal	1610.536837
22	1	y_fric_alv_V	yzyz	y	z	z	z	z	a_small_animal	a_large_animal	a_large_animal	1928.850164
28	0	y_fric_alv_V	yzyz	y	z	z	z	z	a_small_animal	a_large_animal	a_large_animal	855.6460512
32	1	y_fric_alv_V	yzyz	y	z	z	z	z	a_small_animal	a_large_animal	a_large_animal	1131.839236
20	13	i_occ_bi_V	ibib	i	b	plosive	anterior	voiced	a_small_animal	a_large_animal	a_small_animal	1618.769506
20	14	a_occ_bi_NV	apap	a	p	plosive	anterior	voiceless	a_small_animal	a_large_animal	a_small_animal	970.5365984
41	2	y_fric_alv_V	yzyz	y	z	z	z	z	a_small_animal	a_large_animal	a_large_animal	939.7172302
21	14	i_occ_bi_NV	ipip	i	p	plosive	anterior	voiceless	a_small_animal	a_large_animal	a_small_animal	1641.30895
22	4	i_occ_bi_V	ibib	i	b	plosive	anterior	voiced	a_small_animal	a_large_animal	a_large_animal	1112.757476
22	8	a_occ_bi_NV	apap	a	p	plosive	anterior	voiceless	a_small_animal	a_large_animal	a_large_animal	1374.734939
23	5	i_occ_bi_NV	ipip	i	p	plosive	anterior	voiceless	a_small_animal	a_large_animal	a_large_animal	1817.265332
24	10	i_occ_bi_V	ibib	i	b	plosive	anterior	voiced	a_small_animal	a_large_animal	a_large_animal	2285.103229
24	15	a_occ_bi_NV	apap	a	p	plosive	anterior	voiceless	a_small_animal	a_large_animal	a_large_animal	668.9067835
26	6	a_occ_bi_NV	apap	a	p	plosive	anterior	voiceless	a_small_animal	a_large_animal	a_small_animal	1312.733175
26	14	i_occ_bi_V	ibib	i	b	plosive	anterior	voiced	a_small_animal	a_large_animal	a_small_animal	1910.780139
2	0	y_fric_alv_V	yzyz	y	z	z	z	z	a_small_animal	a_large_animal	a_small_animal	1003.897333
28	13	i_occ_bi_V	ibib	i	b	plosive	anterior	voiced	a_small_animal	a_large_animal	a_small_animal	1173.576002
12	2	y_fric_alv_V	yzyz	y	z	z	z	z	a_small_animal	a_large_animal	a_small_animal	1459.482402
15	3	y_fric_alv_V	yzyz	y	z	z	z	z	a_small_animal	a_large_animal	a_small_animal	2189.406352
32	4	a_occ_bi_NV	apap	a	p	plosive	anterior	voiceless	a_small_animal	a_large_animal	a_large_animal	431.9061896
32	13	i_occ_bi_V	ibib	i	b	plosive	anterior	voiced	a_small_animal	a_large_animal	a_small_animal	592.1797288
16	2	y_fric_alv_V	yzyz	y	z	z	z	z	a_small_animal	a_large_animal	a_small_animal	1241.986249
17	0	y_fric_alv_V	yzyz	y	z	z	z	z	a_small_animal	a_large_animal	a_small_animal	1849.704042
19	1	y_fric_alv_V	yzyz	y	z	z	z	z	a_small_animal	a_large_animal	a_small_animal	1684.732168
33	8	a_occ_bi_V	abab	a	b	plosive	anterior	voiced	a_small_animal	a_large_animal	a_small_animal	1701.249451
20	0	y_fric_alv_V	yzyz	y	z	z	z	z	a_small_animal	a_large_animal	a_small_animal	1823.244752
27	1	y_fric_alv_V	yzyz	y	z	z	z	z	a_small_animal	a_large_animal	a_small_animal	1333.59874
33	3	y_fric_alv_V	yzyz	y	z	z	z	z	a_small_animal	a_large_animal	a_small_animal	1078.264829
34	2	y_fric_alv_V	yzyz	y	z	z	z	z	a_small_animal	a_large_animal	a_small_animal	628.2540953
35	5	a_occ_bi_V	abab	a	b	plosive	anterior	voiced	a_small_animal	a_large_animal	a_large_animal	736.3300011
35	9	i_occ_bi_NV	ipip	i	p	plosive	anterior	voiceless	a_small_animal	a_large_animal	a_small_animal	1220.578089
36	10	a_occ_bi_NV	apap	a	p	plosive	anterior	voiceless	a_small_animal	a_large_animal	a_small_animal	1152.188324
36	15	i_occ_bi_V	ibib	i	b	plosive	anterior	voiced	a_small_animal	a_large_animal	a_small_animal	1563.098852
45	3	y_fric_alv_V	yzyz	y	z	z	z	z	a_small_animal	a_large_animal	a_small_animal	673.7539755
46	3	y_fric_alv_V	yzyz	y	z	z	z	z	a_small_animal	a_large_animal	a_small_animal	1981.731951
48	3	y_fric_alv_V	yzyz	y	z	z	z	z	a_small_animal	a_large_animal	a_small_animal	772.2502672
37	15	a_occ_bi_V	abab	a	b	plosive	anterior	voiced	a_small_animal	a_large_animal	a_large_animal	592.4343423
49	0	y_fric_alv_V	yzyz	y	z	z	z	z	a_small_animal	a_large_animal	a_small_animal	573.3023385
51	2	y_fric_alv_V	yzyz	y	z	z	z	z	a_small_animal	a_large_animal	a_small_animal	1808.79598
53	1	y_fric_alv_V	yzyz	y	z	z	z	z	a_small_animal	a_large_animal	a_small_animal	1104.163547
38	4	a_occ_bi_NV	apap	a	p	plosive	anterior	voiceless	a_small_animal	a_large_animal	a_small_animal	1185.093076
55	1	y_fric_alv_V	yzyz	y	z	z	z	z	a_small_animal	a_large_animal	a_small_animal	1988.427776
57	3	y_fric_alv_V	yzyz	y	z	z	z	z	a_small_animal	a_large_animal	a_small_animal	1394.043892
59	3	y_fric_alv_V	yzyz	y	z	z	z	z	a_small_animal	a_large_animal	a_small_animal	1205.051267
40	13	i_occ_bi_V	ibib	i	b	plosive	anterior	voiced	a_small_animal	a_large_animal	a_small_animal	539.8741638
41	4	i_occ_bi_NV	ipip	i	p	plosive	anterior	voiceless	a_small_animal	a_large_animal	a_small_animal	694.6119601
41	9	a_occ_bi_V	abab	a	b	plosive	anterior	voiced	a_small_animal	a_large_animal	a_large_animal	871.6400267
42	10	i_occ_bi_V	ibib	i	b	plosive	anterior	voiced	a_small_animal	a_large_animal	a_small_animal	547.9256441
43	4	a_occ_bi_V	abab	a	b	plosive	anterior	voiced	a_small_animal	a_large_animal	a_large_animal	1136.438058
43	15	i_occ_bi_NV	ipip	i	p	plosive	anterior	voiceless	a_small_animal	a_large_animal	a_small_animal	1717.270284
45	6	i_occ_bi_NV	ipip	i	p	plosive	anterior	voiceless	a_small_animal	a_large_animal	a_small_animal	1732.744375
45	14	a_occ_bi_V	abab	a	b	plosive	anterior	voiced	a_small_animal	a_large_animal	a_large_animal	1522.304139
46	8	i_occ_bi_V	ibib	i	b	plosive	anterior	voiced	a_small_animal	a_large_animal	a_small_animal	812.0439625
47	8	a_occ_bi_V	abab	a	b	plosive	anterior	voiced	a_small_animal	a_large_animal	a_large_animal	1649.445484
49	14	i_occ_bi_NV	ipip	i	p	plosive	anterior	voiceless	a_small_animal	a_large_animal	a_small_animal	679.1005332
50	6	i_occ_bi_V	ibib	i	b	plosive	anterior	voiced	a_small_animal	a_large_animal	a_small_animal	700.0316835
51	6	i_occ_bi_NV	ipip	i	p	plosive	anterior	voiceless	a_small_animal	a_large_animal	None	2500.106653
51	10	a_occ_bi_V	abab	a	b	plosive	anterior	voiced	a_small_animal	a_large_animal	a_small_animal	1266.586788
53	6	i_occ_bi_NV	ipip	i	p	plosive	anterior	voiceless	a_small_animal	a_large_animal	a_small_animal	1207.971614
57	13	i_occ_bi_NV	ipip	i	p	plosive	anterior	voiceless	a_small_animal	a_large_animal	a_small_animal	1327.599937
59	7	a_occ_bi_V	abab	a	b	plosive	anterior	voiced	a_small_animal	a_large_animal	a_large_animal	946.2642185
59	8	i_occ_bi_NV	ipip	i	p	plosive	anterior	voiceless	a_small_animal	a_large_animal	a_small_animal	696.7383088
1	7	a_occ_bi_V	abab	a	b	plosive	anterior	voiced	a_large_animal	a_small_animal	a_large_animal	483.6655988
1	14	i_occ_bi_NV	ipip	i	p	plosive	anterior	voiceless	a_large_animal	a_small_animal	a_small_animal	713.0096834
2	8	i_occ_bi_V	ibib	i	b	plosive	anterior	voiced	a_large_animal	a_small_animal	a_small_animal	1149.996011
2	13	a_occ_bi_NV	apap	a	p	plosive	anterior	voiceless	a_large_animal	a_small_animal	a_small_animal	871.9965092
13	3	y_fric_alv_V	yzyz	y	z	z	z	z	a_large_animal	a_small_animal	None	2500.039232
4	15	i_occ_bi_V	ibib	i	b	plosive	anterior	voiced	a_large_animal	a_small_animal	a_small_animal	756.099184
6	11	i_occ_bi_V	ibib	i	b	plosive	anterior	voiced	a_large_animal	a_small_animal	a_large_animal	1835.144662
42	0	y_fric_alv_V	yzyz	y	z	z	z	z	a_large_animal	a_small_animal	None	2500.085604
8	5	i_occ_bi_V	ibib	i	b	plosive	anterior	voiced	a_large_animal	a_small_animal	a_small_animal	765.0261031
8	8	a_occ_bi_NV	apap	a	p	plosive	anterior	voiceless	a_large_animal	a_small_animal	a_small_animal	466.5232259
9	5	i_occ_bi_NV	ipip	i	p	plosive	anterior	voiceless	a_large_animal	a_small_animal	a_small_animal	343.7790823
11	5	i_occ_bi_NV	ipip	i	p	plosive	anterior	voiceless	a_large_animal	a_small_animal	a_large_animal	776.2953286
11	10	a_occ_bi_V	abab	a	b	plosive	anterior	voiced	a_large_animal	a_small_animal	a_large_animal	1180.177499
13	12	a_occ_bi_V	abab	a	b	plosive	anterior	voiced	a_large_animal	a_small_animal	a_large_animal	665.5252544
15	4	i_occ_bi_NV	ipip	i	p	plosive	anterior	voiceless	a_large_animal	a_small_animal	a_small_animal	617.8213272
16	12	i_occ_bi_V	ibib	i	b	plosive	anterior	voiced	a_large_animal	a_small_animal	a_large_animal	1508.006384
17	5	i_occ_bi_NV	ipip	i	p	plosive	anterior	voiceless	a_large_animal	a_small_animal	a_small_animal	1319.308187
1	2	y_fric_alv_V	yzyz	y	z	z	z	z	a_large_animal	a_small_animal	a_large_animal	1185.564969
19	12	i_occ_bi_NV	ipip	i	p	plosive	anterior	voiceless	a_large_animal	a_small_animal	a_small_animal	2106.596961
40	0	y_fric_alv_V	yzyz	y	z	z	z	z	a_large_animal	a_small_animal	a_large_animal	553.162675
47	0	y_fric_alv_V	yzyz	y	z	z	z	z	a_large_animal	a_small_animal	a_large_animal	2417.608199
21	12	a_occ_bi_V	abab	a	b	plosive	anterior	voiced	a_large_animal	a_small_animal	None	2500.026982
23	12	a_occ_bi_V	abab	a	b	plosive	anterior	voiced	a_large_animal	a_small_animal	a_large_animal	905.5403246
27	14	a_occ_bi_V	abab	a	b	plosive	anterior	voiced	a_large_animal	a_small_animal	a_large_animal	1233.321867
27	15	i_occ_bi_NV	ipip	i	p	plosive	anterior	voiceless	a_large_animal	a_small_animal	a_small_animal	1757.078814
6	1	y_fric_alv_V	yzyz	y	z	z	z	z	a_large_animal	a_small_animal	a_small_animal	1954.570179
9	3	y_fric_alv_V	yzyz	y	z	z	z	z	a_large_animal	a_small_animal	a_small_animal	407.505379
28	15	a_occ_bi_NV	apap	a	p	plosive	anterior	voiceless	a_large_animal	a_small_animal	a_large_animal	771.1965495
10	1	y_fric_alv_V	yzyz	y	z	z	z	z	a_large_animal	a_small_animal	a_small_animal	871.9822733
11	3	y_fric_alv_V	yzyz	y	z	z	z	z	a_large_animal	a_small_animal	a_small_animal	754.056163
18	1	y_fric_alv_V	yzyz	y	z	z	z	z	a_large_animal	a_small_animal	a_small_animal	972.8020971
33	5	i_occ_bi_NV	ipip	i	p	plosive	anterior	voiceless	a_large_animal	a_small_animal	a_small_animal	1001.469504
21	2	y_fric_alv_V	yzyz	y	z	z	z	z	a_large_animal	a_small_animal	a_small_animal	978.6507454
23	2	y_fric_alv_V	yzyz	y	z	z	z	z	a_large_animal	a_small_animal	a_small_animal	865.1904121
24	2	y_fric_alv_V	yzyz	y	z	z	z	z	a_large_animal	a_small_animal	a_small_animal	762.2328819
34	6	i_occ_bi_V	ibib	i	b	plosive	anterior	voiced	a_large_animal	a_small_animal	a_small_animal	936.6211985
34	10	a_occ_bi_NV	apap	a	p	plosive	anterior	voiceless	a_large_animal	a_small_animal	a_large_animal	1405.849506
26	0	y_fric_alv_V	yzyz	y	z	z	z	z	a_large_animal	a_small_animal	a_small_animal	1752.485907
35	0	y_fric_alv_V	yzyz	y	z	z	z	z	a_large_animal	a_small_animal	a_small_animal	2161.890313
36	3	y_fric_alv_V	yzyz	y	z	z	z	z	a_large_animal	a_small_animal	a_small_animal	2293.991223
37	2	y_fric_alv_V	yzyz	y	z	z	z	z	a_large_animal	a_small_animal	a_small_animal	483.2637535
38	1	y_fric_alv_V	yzyz	y	z	z	z	z	a_large_animal	a_small_animal	a_small_animal	2119.587737
43	3	y_fric_alv_V	yzyz	y	z	z	z	z	a_large_animal	a_small_animal	a_small_animal	2438.99546
37	10	i_occ_bi_NV	ipip	i	p	plosive	anterior	voiceless	a_large_animal	a_small_animal	a_small_animal	269.3996635
50	0	y_fric_alv_V	yzyz	y	z	z	z	z	a_large_animal	a_small_animal	a_small_animal	909.5006045
38	15	i_occ_bi_V	ibib	i	b	plosive	anterior	voiced	a_large_animal	a_small_animal	a_large_animal	715.9780759
40	11	a_occ_bi_NV	apap	a	p	plosive	anterior	voiceless	a_large_animal	a_small_animal	a_large_animal	180.1434142
42	8	a_occ_bi_NV	apap	a	p	plosive	anterior	voiceless	a_large_animal	a_small_animal	a_small_animal	1341.142229
44	6	a_occ_bi_NV	apap	a	p	plosive	anterior	voiceless	a_large_animal	a_small_animal	a_small_animal	594.5760855
44	13	i_occ_bi_V	ibib	i	b	plosive	anterior	voiced	a_large_animal	a_small_animal	a_small_animal	54.28952767
46	6	a_occ_bi_NV	apap	a	p	plosive	anterior	voiceless	a_large_animal	a_small_animal	a_small_animal	602.6350044
47	12	i_occ_bi_NV	ipip	i	p	plosive	anterior	voiceless	a_large_animal	a_small_animal	a_small_animal	1059.254117
48	6	a_occ_bi_NV	apap	a	p	plosive	anterior	voiceless	a_large_animal	a_small_animal	a_large_animal	512.1737877
48	14	i_occ_bi_V	ibib	i	b	plosive	anterior	voiced	a_large_animal	a_small_animal	a_small_animal	494.2444442
49	13	a_occ_bi_V	abab	a	b	plosive	anterior	voiced	a_large_animal	a_small_animal	a_small_animal	1188.69126
50	11	a_occ_bi_NV	apap	a	p	plosive	anterior	voiceless	a_large_animal	a_small_animal	a_small_animal	437.8265971
53	10	a_occ_bi_V	abab	a	b	plosive	anterior	voiced	a_large_animal	a_small_animal	a_large_animal	946.2110363
55	5	i_occ_bi_NV	ipip	i	p	plosive	anterior	voiceless	a_large_animal	a_small_animal	a_small_animal	1331.940804
55	7	a_occ_bi_V	abab	a	b	plosive	anterior	voiced	a_large_animal	a_small_animal	a_large_animal	1618.139459
57	7	a_occ_bi_V	abab	a	b	plosive	anterior	voiced	a_large_animal	a_small_animal	a_large_animal	1745.673711
5	2	y_occ_bi_NV	ypyp	y	p	plosive	anterior	voiceless	a_repulsive_animal	an_attractive_animal	None	2500.029631
13	0	y_occ_bi_NV	ypyp	y	p	plosive	anterior	voiceless	a_repulsive_animal	an_attractive_animal	None	2500.026651
16	0	y_occ_bi_NV	ypyp	y	p	plosive	anterior	voiceless	a_repulsive_animal	an_attractive_animal	None	2500.020361
17	3	y_occ_bi_NV	ypyp	y	p	plosive	anterior	voiceless	a_repulsive_animal	an_attractive_animal	None	2500.028968
42	1	y_occ_bi_NV	ypyp	y	p	plosive	anterior	voiceless	a_repulsive_animal	an_attractive_animal	None	2500.073475
47	1	y_occ_bi_NV	ypyp	y	p	plosive	anterior	voiceless	a_repulsive_animal	an_attractive_animal	None	2500.064145
51	0	y_occ_bi_NV	ypyp	y	p	plosive	anterior	voiceless	a_repulsive_animal	an_attractive_animal	None	2500.053996
4	0	y_occ_bi_NV	ypyp	y	p	plosive	anterior	voiceless	a_repulsive_animal	an_attractive_animal	an_attractive_animal	1239.733331
6	3	y_occ_bi_NV	ypyp	y	p	plosive	anterior	voiceless	a_repulsive_animal	an_attractive_animal	an_attractive_animal	1228.121781
14	2	y_occ_bi_NV	ypyp	y	p	plosive	anterior	voiceless	a_repulsive_animal	an_attractive_animal	an_attractive_animal	1779.19416
22	2	y_occ_bi_NV	ypyp	y	p	plosive	anterior	voiceless	a_repulsive_animal	an_attractive_animal	an_attractive_animal	1358.623843
26	3	y_occ_bi_NV	ypyp	y	p	plosive	anterior	voiceless	a_repulsive_animal	an_attractive_animal	an_attractive_animal	1554.738958
32	2	y_occ_bi_NV	ypyp	y	p	plosive	anterior	voiceless	a_repulsive_animal	an_attractive_animal	an_attractive_animal	1482.633325
36	1	y_occ_bi_NV	ypyp	y	p	plosive	anterior	voiceless	a_repulsive_animal	an_attractive_animal	an_attractive_animal	2264.297454
44	1	y_occ_bi_NV	ypyp	y	p	plosive	anterior	voiceless	a_repulsive_animal	an_attractive_animal	an_attractive_animal	1799.814889
53	0	y_occ_bi_NV	ypyp	y	p	plosive	anterior	voiceless	a_repulsive_animal	an_attractive_animal	an_attractive_animal	2142.723321
57	0	y_occ_bi_NV	ypyp	y	p	plosive	anterior	voiceless	a_repulsive_animal	an_attractive_animal	an_attractive_animal	1753.296936
2	3	y_occ_bi_NV	ypyp	y	p	plosive	anterior	voiceless	a_repulsive_animal	an_attractive_animal	a_repulsive_animal	1102.230836
8	0	y_occ_bi_NV	ypyp	y	p	plosive	anterior	voiceless	a_repulsive_animal	an_attractive_animal	a_repulsive_animal	1916.589721
10	3	y_occ_bi_NV	ypyp	y	p	plosive	anterior	voiceless	a_repulsive_animal	an_attractive_animal	a_repulsive_animal	865.5403511
11	0	y_occ_bi_NV	ypyp	y	p	plosive	anterior	voiceless	a_repulsive_animal	an_attractive_animal	a_repulsive_animal	1454.743493
19	3	y_occ_bi_NV	ypyp	y	p	plosive	anterior	voiceless	a_repulsive_animal	an_attractive_animal	a_repulsive_animal	2055.140047
33	0	y_occ_bi_NV	ypyp	y	p	plosive	anterior	voiceless	a_repulsive_animal	an_attractive_animal	a_repulsive_animal	1415.970752
41	1	y_occ_bi_NV	ypyp	y	p	plosive	anterior	voiceless	a_repulsive_animal	an_attractive_animal	a_repulsive_animal	1069.43941
43	0	y_occ_bi_NV	ypyp	y	p	plosive	anterior	voiceless	a_repulsive_animal	an_attractive_animal	a_repulsive_animal	929.2938083
59	2	y_occ_bi_NV	ypyp	y	p	plosive	anterior	voiceless	a_repulsive_animal	an_attractive_animal	a_repulsive_animal	943.6932872
1	1	y_occ_bi_NV	ypyp	y	p	plosive	anterior	voiceless	an_attractive_animal	a_repulsive_animal	None	2500.025989
15	0	y_occ_bi_NV	ypyp	y	p	plosive	anterior	voiceless	an_attractive_animal	a_repulsive_animal	None	2500.028306
34	1	y_occ_bi_NV	ypyp	y	p	plosive	anterior	voiceless	an_attractive_animal	a_repulsive_animal	None	2500.147485
37	0	y_occ_bi_NV	ypyp	y	p	plosive	anterior	voiceless	an_attractive_animal	a_repulsive_animal	None	2500.046884
46	0	y_occ_bi_NV	ypyp	y	p	plosive	anterior	voiceless	an_attractive_animal	a_repulsive_animal	None	2500.073854
9	2	y_occ_bi_NV	ypyp	y	p	plosive	anterior	voiceless	an_attractive_animal	a_repulsive_animal	an_attractive_animal	471.6868944
20	3	y_occ_bi_NV	ypyp	y	p	plosive	anterior	voiceless	an_attractive_animal	a_repulsive_animal	an_attractive_animal	1404.52378
21	0	y_occ_bi_NV	ypyp	y	p	plosive	anterior	voiceless	an_attractive_animal	a_repulsive_animal	an_attractive_animal	1405.068056
24	0	y_occ_bi_NV	ypyp	y	p	plosive	anterior	voiceless	an_attractive_animal	a_repulsive_animal	an_attractive_animal	810.6582063
28	1	y_occ_bi_NV	ypyp	y	p	plosive	anterior	voiceless	an_attractive_animal	a_repulsive_animal	an_attractive_animal	1221.43222
40	1	y_occ_bi_NV	ypyp	y	p	plosive	anterior	voiceless	an_attractive_animal	a_repulsive_animal	an_attractive_animal	1324.868526
48	2	y_occ_bi_NV	ypyp	y	p	plosive	anterior	voiceless	an_attractive_animal	a_repulsive_animal	an_attractive_animal	933.9898982
50	2	y_occ_bi_NV	ypyp	y	p	plosive	anterior	voiceless	an_attractive_animal	a_repulsive_animal	an_attractive_animal	1150.205943
55	3	y_occ_bi_NV	ypyp	y	p	plosive	anterior	voiceless	an_attractive_animal	a_repulsive_animal	an_attractive_animal	1998.586011
12	1	y_occ_bi_NV	ypyp	y	p	plosive	anterior	voiceless	an_attractive_animal	a_repulsive_animal	a_repulsive_animal	1399.730577
18	0	y_occ_bi_NV	ypyp	y	p	plosive	anterior	voiceless	an_attractive_animal	a_repulsive_animal	a_repulsive_animal	1764.017008
23	3	y_occ_bi_NV	ypyp	y	p	plosive	anterior	voiceless	an_attractive_animal	a_repulsive_animal	a_repulsive_animal	1835.022498
27	3	y_occ_bi_NV	ypyp	y	p	plosive	anterior	voiceless	an_attractive_animal	a_repulsive_animal	a_repulsive_animal	1341.054061
35	1	y_occ_bi_NV	ypyp	y	p	plosive	anterior	voiceless	an_attractive_animal	a_repulsive_animal	a_repulsive_animal	2235.546033
38	0	y_occ_bi_NV	ypyp	y	p	plosive	anterior	voiceless	an_attractive_animal	a_repulsive_animal	a_repulsive_animal	1714.513704
45	1	y_occ_bi_NV	ypyp	y	p	plosive	anterior	voiceless	an_attractive_animal	a_repulsive_animal	a_repulsive_animal	613.5149741
49	2	y_occ_bi_NV	ypyp	y	p	plosive	anterior	voiceless	an_attractive_animal	a_repulsive_animal	a_repulsive_animal	1010.445138
1	11	a_frac_alv_NV	asas	a	s	fricative	medium	voiceless	a_fish	a_bird	a_bird	1723.722052
1	13	i_occ_alv_NV	itit	i	t	plosive	medium	voiceless	a_fish	a_bird	a_bird	1648.219665
13	2	a_occ_alv_V	adad	a	d	plosive	medium	voiced	a_fish	a_bird	None	2500.021023
4	7	a_occ_alv_NV	atat	a	t	plosive	medium	voiceless	a_fish	a_bird	a_bird	1835.864404
4	14	i_fric_alv_NV	isis	i	s	fricative	medium	voiceless	a_fish	a_bird	a_bird	443.2527834
15	1	a_occ_alv_V	adad	a	d	plosive	medium	voiced	a_fish	a_bird	None	2500.024996
5	7	a_frac_alv_NV	asas	a	s	fricative	medium	voiceless	a_fish	a_bird	a_bird	1498.555385
5	11	i_occ_alv_NV	itit	i	t	plosive	medium	voiceless	a_fish	a_bird	a_bird	1156.631939
27	0	a_occ_alv_V	adad	a	d	plosive	medium	voiced	a_fish	a_bird	None	2500.028306
6	14	i_fric_alv_NV	isis	i	s	fricative	medium	voiceless	a_fish	a_bird	a_bird	1108.388702
8	4	a_occ_alv_NV	atat	a	t	plosive	medium	voiceless	a_fish	a_bird	a_fish	870.2812456
9	8	i_occ_alv_NV	itit	i	t	plosive	medium	voiceless	a_fish	a_bird	a_bird	244.2348637
10	9	i_fric_alv_NV	isis	i	s	fricative	medium	voiceless	a_fish	a_bird	a_bird	1587.655399
10	13	a_occ_alv_NV	atat	a	t	plosive	medium	voiceless	a_fish	a_bird	None	2500.033272
11	8	i_occ_alv_NV	itit	i	t	plosive	medium	voiceless	a_fish	a_bird	a_fish	1225.604671
12	9	i_fric_alv_NV	isis	i	s	fricative	medium	voiceless	a_fish	a_bird	a_fish	1008.433959
14	5	i_fric_alv_NV	isis	i	s	fricative	medium	voiceless	a_fish	a_bird	a_bird	1640.801754
15	8	a_frac_alv_NV	asas	a	s	fricative	medium	voiceless	a_fish	a_bird	a_fish	861.8952918
16	10	a_occ_alv_NV	atat	a	t	plosive	medium	voiceless	a_fish	a_bird	a_bird	2177.504124
16	11	i_fric_alv_NV	isis	i	s	fricative	medium	voiceless	a_fish	a_bird	a_bird	848.2698549
19	5	i_occ_alv_NV	itit	i	t	plosive	medium	voiceless	a_fish	a_bird	a_bird	1005.478845
20	4	i_fric_alv_NV	isis	i	s	fricative	medium	voiceless	a_fish	a_bird	a_fish	871.0410468
21	8	a_frac_alv_NV	asas	a	s	fricative	medium	voiceless	a_fish	a_bird	a_bird	955.8100292
21	9	i_occ_alv_NV	itit	i	t	plosive	medium	voiceless	a_fish	a_bird	a_bird	1284.608944
22	12	i_fric_alv_NV	isis	i	s	fricative	medium	voiceless	a_fish	a_bird	a_bird	1100.737719
23	15	a_frac_alv_NV	asas	a	s	fricative	medium	voiceless	a_fish	a_bird	a_bird	1209.831265
24	4	a_occ_alv_NV	atat	a	t	plosive	medium	voiceless	a_fish	a_bird	a_bird	1384.55839
24	8	i_fric_alv_NV	isis	i	s	fricative	medium	voiceless	a_fish	a_bird	a_fish	1710.63725
26	13	a_occ_alv_NV	atat	a	t	plosive	medium	voiceless	a_fish	a_bird	a_bird	1524.022464
27	11	a_frac_alv_NV	asas	a	s	fricative	medium	voiceless	a_fish	a_bird	a_bird	914.9989389
32	15	i_fric_alv_NV	isis	i	s	fricative	medium	voiceless	a_fish	a_bird	a_fish	543.7805866
33	4	a_frac_alv_NV	asas	a	s	fricative	medium	voiceless	a_fish	a_bird	a_bird	822.7223511
34	5	a_occ_alv_NV	atat	a	t	plosive	medium	voiceless	a_fish	a_bird	a_bird	326.6436313
35	10	a_frac_alv_NV	asas	a	s	fricative	medium	voiceless	a_fish	a_bird	a_fish	2005.560322
35	13	i_occ_alv_NV	itit	i	t	plosive	medium	voiceless	a_fish	a_bird	a_bird	537.4655775
36	11	a_occ_alv_NV	atat	a	t	plosive	medium	voiceless	a_fish	a_bird	a_bird	1791.298766
37	5	i_occ_alv_NV	itit	i	t	plosive	medium	voiceless	a_fish	a_bird	a_bird	400.0016794
40	6	a_occ_alv_NV	atat	a	t	plosive	medium	voiceless	a_fish	a_bird	a_bird	853.0090535
41	7	i_occ_alv_NV	itit	i	t	plosive	medium	voiceless	a_fish	a_bird	a_bird	548.3902871
42	4	a_occ_alv_NV	atat	a	t	plosive	medium	voiceless	a_fish	a_bird	a_bird	1063.17326
42	9	i_fric_alv_NV	isis	i	s	fricative	medium	voiceless	a_fish	a_bird	a_bird	323.1988901
8	3	a_occ_alv_V	adad	a	d	plosive	medium	voiced	a_fish	a_bird	a_bird	1561.752966
45	10	a_frac_alv_NV	asas	a	s	fricative	medium	voiceless	a_fish	a_bird	a_bird	1582.743951
9	0	a_occ_alv_V	adad	a	d	plosive	medium	voiced	a_fish	a_bird	a_bird	983.0565991
16	3	a_occ_alv_V	adad	a	d	plosive	medium	voiced	a_fish	a_bird	a_bird	2379.685068
18	2	a_occ_alv_V	adad	a	d	plosive	medium	voiced	a_fish	a_bird	a_bird	1774.554242
46	10	i_fric_alv_NV	isis	i	s	fricative	medium	voiceless	a_fish	a_bird	a_bird	1381.268388
46	13	a_occ_alv_NV	atat	a	t	plosive	medium	voiceless	a_fish	a_bird	a_bird	1559.285147
19	0	a_occ_alv_V	adad	a	d	plosive	medium	voiced	a_fish	a_bird	a_bird	1866.994733
23	1	a_occ_alv_V	adad	a	d	plosive	medium	voiced	a_fish	a_bird	a_bird	1121.40398
47	9	a_frac_alv_NV	asas	a	s	fricative	medium	voiceless	a_fish	a_bird	a_bird	1613.357741
24	1	a_occ_alv_V	adad	a	d	plosive	medium	voiced	a_fish	a_bird	a_bird	1103.430958
28	2	a_occ_alv_V	adad	a	d	plosive	medium	voiced	a_fish	a_bird	a_bird	762.2411586
48	5	i_fric_alv_NV	isis	i	s	fricative	medium	voiceless	a_fish	a_bird	a_bird	719.0159831
48	12	a_occ_alv_NV	atat	a	t	plosive	medium	voiceless	a_fish	a_bird	a_fish	385.2520619
33	1	a_occ_alv_V	adad	a	d	plosive	medium	voiced	a_fish	a_bird	a_bird	2309.938369
34	3	a_occ_alv_V	adad	a	d	plosive	medium	voiced	a_fish	a_bird	a_bird	1247.498446
35	2	a_occ_alv_V	adad	a	d	plosive	medium	voiced	a_fish	a_bird	a_bird	1727.627274
49	5	a_frac_alv_NV	asas	a	s	fricative	medium	voiceless	a_fish	a_bird	a_bird	726.4978557
40	3	a_occ_alv_V	adad	a	d	plosive	medium	voiced	a_fish	a_bird	a_bird	1498.276016
51	9	a_frac_alv_NV	asas	a	s	fricative	medium	voiceless	a_fish	a_bird	a_fish	1888.133392
2	2	a_occ_alv_V	adad	a	d	plosive	medium	voiced	a_fish	a_bird	a_fish	919.4938499
10	2	a_occ_alv_V	adad	a	d	plosive	medium	voiced	a_fish	a_bird	a_fish	1074.702527
53	5	i_occ_alv_NV	itit	i	t	plosive	medium	voiceless	a_fish	a_bird	a_bird	905.4092192
45	0	a_occ_alv_V	adad	a	d	plosive	medium	voiced	a_fish	a_bird	a_fish	1422.021976
57	14	i_occ_alv_NV	itit	i	t	plosive	medium	voiceless	a_fish	a_bird	a_bird	1494.313954
50	1	a_occ_alv_V	adad	a	d	plosive	medium	voiced	a_fish	a_bird	a_fish	1108.932532
57	2	a_occ_alv_V	adad	a	d	plosive	medium	voiced	a_fish	a_bird	a_fish	1845.230947
2	11	a_occ_alv_NV	atat	a	t	plosive	medium	voiceless	a_bird	a_fish	a_bird	1070.455255
2	15	i_fric_alv_NV	isis	i	s	fricative	medium	voiceless	a_bird	a_fish	a_fish	603.5754688
17	2	a_occ_alv_V	adad	a	d	plosive	medium	voiced	a_bird	a_fish	None	2500.025327
6	10	a_occ_alv_NV	atat	a	t	plosive	medium	voiceless	a_bird	a_fish	a_bird	1008.406811
8	10	i_fric_alv_NV	isis	i	s	fricative	medium	voiceless	a_bird	a_fish	a_fish	956.125206
9	11	a_frac_alv_NV	asas	a	s	fricative	medium	voiceless	a_bird	a_fish	a_fish	409.6851311
11	4	a_frac_alv_NV	asas	a	s	fricative	medium	voiceless	a_bird	a_fish	a_fish	1318.415627
12	12	a_occ_alv_NV	atat	a	t	plosive	medium	voiceless	a_bird	a_fish	a_fish	799.7505071
13	6	a_frac_alv_NV	asas	a	s	fricative	medium	voiceless	a_bird	a_fish	None	2500.039563
13	11	i_occ_alv_NV	itit	i	t	plosive	medium	voiceless	a_bird	a_fish	a_bird	1315.709477
14	13	a_occ_alv_NV	atat	a	t	plosive	medium	voiceless	a_bird	a_fish	a_bird	1908.991378
15	15	i_occ_alv_NV	itit	i	t	plosive	medium	voiceless	a_bird	a_fish	a_fish	686.3914807
17	4	a_frac_alv_NV	asas	a	s	fricative	medium	voiceless	a_bird	a_fish	a_fish	1729.541898
17	10	i_occ_alv_NV	itit	i	t	plosive	medium	voiceless	a_bird	a_fish	a_bird	1297.024658
18	6	a_occ_alv_NV	atat	a	t	plosive	medium	voiceless	a_bird	a_fish	a_fish	351.9710302
18	11	i_fric_alv_NV	isis	i	s	fricative	medium	voiceless	a_bird	a_fish	a_bird	714.0230827
19	8	a_frac_alv_NV	asas	a	s	fricative	medium	voiceless	a_bird	a_fish	None	2500.030955
20	9	a_occ_alv_NV	atat	a	t	plosive	medium	voiceless	a_bird	a_fish	a_bird	1528.781567
22	5	a_occ_alv_NV	atat	a	t	plosive	medium	voiceless	a_bird	a_fish	a_bird	1076.502875
23	6	i_occ_alv_NV	itit	i	t	plosive	medium	voiceless	a_bird	a_fish	a_bird	2210.050432
26	7	i_fric_alv_NV	isis	i	s	fricative	medium	voiceless	a_bird	a_fish	a_bird	770.5112386
27	6	i_occ_alv_NV	itit	i	t	plosive	medium	voiceless	a_bird	a_fish	a_fish	1795.316844
28	5	a_occ_alv_NV	atat	a	t	plosive	medium	voiceless	a_bird	a_fish	a_fish	763.1307384
28	9	i_fric_alv_NV	isis	i	s	fricative	medium	voiceless	a_bird	a_fish	a_bird	575.3542345
32	11	a_occ_alv_NV	atat	a	t	plosive	medium	voiceless	a_bird	a_fish	a_bird	596.5504521
33	9	i_occ_alv_NV	itit	i	t	plosive	medium	voiceless	a_bird	a_fish	a_bird	469.8324906
34	12	i_fric_alv_NV	isis	i	s	fricative	medium	voiceless	a_bird	a_fish	a_bird	685.8874554
36	14	i_fric_alv_NV	isis	i	s	fricative	medium	voiceless	a_bird	a_fish	None	2500.065545
37	7	a_frac_alv_NV	asas	a	s	fricative	medium	voiceless	a_bird	a_fish	a_bird	404.6121887
38	10	a_occ_alv_NV	atat	a	t	plosive	medium	voiceless	a_bird	a_fish	None	2500.05948
38	13	i_fric_alv_NV	isis	i	s	fricative	medium	voiceless	a_bird	a_fish	a_bird	537.5066303
40	14	i_fric_alv_NV	isis	i	s	fricative	medium	voiceless	a_bird	a_fish	a_fish	620.3357839
41	5	a_frac_alv_NV	asas	a	s	fricative	medium	voiceless	a_bird	a_fish	a_bird	1297.608068
43	7	i_occ_alv_NV	itit	i	t	plosive	medium	voiceless	a_bird	a_fish	a_bird	786.9117282
43	12	a_frac_alv_NV	asas	a	s	fricative	medium	voiceless	a_bird	a_fish	a_bird	1526.87327
44	8	i_fric_alv_NV	isis	i	s	fricative	medium	voiceless	a_bird	a_fish	a_bird	903.1032651
44	12	a_occ_alv_NV	atat	a	t	plosive	medium	voiceless	a_bird	a_fish	a_fish	696.7257127
4	3	a_occ_alv_V	adad	a	d	plosive	medium	voiced	a_bird	a_fish	a_bird	1266.025432
5	1	a_occ_alv_V	adad	a	d	plosive	medium	voiced	a_bird	a_fish	a_bird	2337.438136
6	2	a_occ_alv_V	adad	a	d	plosive	medium	voiced	a_bird	a_fish	a_bird	1248.359972
45	4	i_occ_alv_NV	itit	i	t	plosive	medium	voiceless	a_bird	a_fish	a_bird	954.048517
12	3	a_occ_alv_V	adad	a	d	plosive	medium	voiced	a_bird	a_fish	a_bird	1748.222744
21	3	a_occ_alv_V	adad	a	d	plosive	medium	voiced	a_bird	a_fish	a_bird	1269.395705
22	0	a_occ_alv_V	adad	a	d	plosive	medium	voiced	a_bird	a_fish	a_bird	923.0981878
47	14	i_occ_alv_NV	itit	i	t	plosive	medium	voiceless	a_bird	a_fish	a_fish	1415.493046
26	1	a_occ_alv_V	adad	a	d	plosive	medium	voiced	a_bird	a_fish	a_bird	2341.231845
32	3	a_occ_alv_V	adad	a	d	plosive	medium	voiced	a_bird	a_fish	a_bird	573.3770758
36	2	a_occ_alv_V	adad	a	d	plosive	medium	voiced	a_bird	a_fish	a_bird	1607.657
49	7	i_occ_alv_NV	itit	i	t	plosive	medium	voiceless	a_bird	a_fish	a_fish	1057.903107
37	1	a_occ_alv_V	adad	a	d	plosive	medium	voiced	a_bird	a_fish	a_bird	1295.618407
38	2	a_occ_alv_V	adad	a	d	plosive	medium	voiced	a_bird	a_fish	a_bird	1704.760399
44	2	a_occ_alv_V	adad	a	d	plosive	medium	voiced	a_bird	a_fish	a_bird	1430.237066
50	5	i_fric_alv_NV	isis	i	s	fricative	medium	voiceless	a_bird	a_fish	a_bird	1190.496718
50	10	a_occ_alv_NV	atat	a	t	plosive	medium	voiceless	a_bird	a_fish	a_bird	828.3134976
49	3	a_occ_alv_V	adad	a	d	plosive	medium	voiced	a_bird	a_fish	a_bird	1038.177704
53	2	a_occ_alv_V	adad	a	d	plosive	medium	voiced	a_bird	a_fish	a_bird	2426.428486
55	0	a_occ_alv_V	adad	a	d	plosive	medium	voiced	a_bird	a_fish	a_bird	2214.946391
1	3	a_occ_alv_V	adad	a	d	plosive	medium	voiced	a_bird	a_fish	a_fish	1815.285876
51	11	i_occ_alv_NV	itit	i	t	plosive	medium	voiceless	a_bird	a_fish	a_bird	1714.224579
11	2	a_occ_alv_V	adad	a	d	plosive	medium	voiced	a_bird	a_fish	a_fish	1354.252089
14	1	a_occ_alv_V	adad	a	d	plosive	medium	voiced	a_bird	a_fish	a_fish	1727.41611
53	9	a_frac_alv_NV	asas	a	s	fricative	medium	voiceless	a_bird	a_fish	a_bird	1279.946967
20	1	a_occ_alv_V	adad	a	d	plosive	medium	voiced	a_bird	a_fish	a_fish	2138.998592
41	0	a_occ_alv_V	adad	a	d	plosive	medium	voiced	a_bird	a_fish	a_fish	1771.162368
42	3	a_occ_alv_V	adad	a	d	plosive	medium	voiced	a_bird	a_fish	a_fish	1006.378579
43	1	a_occ_alv_V	adad	a	d	plosive	medium	voiced	a_bird	a_fish	a_fish	1208.488795
55	8	a_frac_alv_NV	asas	a	s	fricative	medium	voiceless	a_bird	a_fish	a_bird	1421.689686
55	13	i_occ_alv_NV	itit	i	t	plosive	medium	voiceless	a_bird	a_fish	a_fish	1303.143199
46	2	a_occ_alv_V	adad	a	d	plosive	medium	voiced	a_bird	a_fish	a_fish	2061.0717
47	2	a_occ_alv_V	adad	a	d	plosive	medium	voiced	a_bird	a_fish	a_fish	993.3545782
48	0	a_occ_alv_V	adad	a	d	plosive	medium	voiced	a_bird	a_fish	a_fish	856.421101
57	10	a_frac_alv_NV	asas	a	s	fricative	medium	voiceless	a_bird	a_fish	a_bird	1180.225987
51	1	a_occ_alv_V	adad	a	d	plosive	medium	voiced	a_bird	a_fish	a_fish	1828.664248
59	0	a_occ_alv_V	adad	a	d	plosive	medium	voiced	a_bird	a_fish	a_fish	1842.416498
59	5	a_frac_alv_NV	asas	a	s	fricative	medium	voiceless	a_bird	a_fish	a_bird	1118.243258
59	14	i_occ_alv_NV	itit	i	t	plosive	medium	voiceless	a_bird	a_fish	a_bird	667.3524352
